Subject,dkey,skey,Block,TrialNum,CorrResp,Match,Probe,Accuracy,RTms,Ziffer1,Ziffer2,Ziffer3,Ziffer4,Ziffer5,n_pre,n_filter,n_finalintra,LogRT,RTs,RespSpeed,PropFilter,PropDel,PropTotal
8,d,l,S3,1,d,0,8,1,822,4,7,6,NA,NA,20,20,20,6.71174039505618,0.822,1.21654501216545,0,0,0
8,d,l,S3,2,d,0,5,1,641,8,2,6,NA,NA,20,20,20,6.46302945692067,0.641,1.5600624024961,0,0,0
8,d,l,S3,3,l,1,8,1,639,8,1,0,NA,NA,20,20,20,6.45990445437753,0.639,1.56494522691706,0,0,0
8,d,l,S3,4,l,1,4,1,597,8,4,7,NA,NA,20,20,20,6.3919171133926,0.597,1.6750418760469,0,0,0
8,d,l,S3,5,d,0,6,1,721,4,1,2,NA,NA,20,20,20,6.58063913728495,0.721,1.3869625520111,0,0,0
8,d,l,S3,6,d,0,2,1,584,4,3,0,NA,NA,20,20,20,6.36990098282823,0.584,1.71232876712329,0,0,0
8,d,l,S3,7,d,0,1,1,704,0,4,3,NA,NA,20,20,20,6.55677835615804,0.704,1.42045454545455,0,0,0
8,d,l,S3,8,l,1,0,1,743,1,0,5,NA,NA,20,20,20,6.61069604471776,0.743,1.34589502018843,0,0,0
8,d,l,S3,9,d,0,7,1,565,9,6,1,NA,NA,20,20,20,6.33682573114644,0.565,1.76991150442478,0,0,0
8,d,l,S3,10,d,0,9,1,658,0,7,1,NA,NA,20,20,20,6.48920493132532,0.658,1.51975683890577,0,0,0
8,d,l,S3,11,l,1,7,1,475,3,5,7,NA,NA,20,20,20,6.16331480403464,0.475,2.10526315789474,0,0,0
8,d,l,S3,12,l,1,1,1,715,0,1,5,NA,NA,20,20,20,6.57228254269401,0.715,1.3986013986014,0,0,0
8,d,l,S3,13,l,1,5,1,449,5,6,3,NA,NA,20,20,20,6.10702288774225,0.449,2.2271714922049,0,0,0
8,d,l,S3,14,d,0,3,1,814,2,8,1,NA,NA,20,20,20,6.70196036600254,0.814,1.22850122850123,0,0,0
8,d,l,S3,15,l,1,6,1,669,6,3,0,NA,NA,20,20,20,6.50578406012823,0.669,1.49476831091181,0,0,0
8,d,l,S3,16,l,1,4,1,709,4,9,6,NA,NA,20,20,20,6.56385552653213,0.709,1.41043723554302,0,0,0
8,d,l,S3,17,l,1,9,1,572,4,1,9,NA,NA,20,20,20,6.3491389913798,0.572,1.74825174825175,0,0,0
8,d,l,S3,18,d,0,6,1,481,0,2,1,NA,NA,20,20,20,6.17586727010576,0.481,2.07900207900208,0,0,0
8,d,l,S3,19,d,0,8,1,701,7,5,6,NA,NA,20,20,20,6.55250788703459,0.701,1.4265335235378,0,0,0
8,d,l,S3,20,l,1,9,1,528,8,1,9,NA,NA,20,20,20,6.26909628370626,0.528,1.89393939393939,0,0,0
8,d,l,S3,21,l,1,8,1,607,1,8,5,NA,NA,20,20,20,6.4085287910595,0.607,1.64744645799012,0,0,0
8,d,l,S3,22,d,0,1,1,530,9,6,4,NA,NA,20,20,20,6.27287700654617,0.53,1.88679245283019,0,0,0
8,d,l,S3,23,l,1,4,1,657,4,6,8,NA,NA,20,20,20,6.48768401848461,0.657,1.5220700152207,0,0,0
8,d,l,S3,24,l,1,0,1,694,4,5,0,NA,NA,20,20,20,6.5424719605068,0.694,1.44092219020173,0,0,0
8,d,l,S3,25,d,0,3,1,566,7,5,1,NA,NA,20,20,20,6.33859407820318,0.566,1.76678445229682,0,0,0
8,d,l,S3,26,l,1,5,1,711,5,6,4,NA,NA,20,20,20,6.56667242980324,0.711,1.40646976090014,0,0,0
8,d,l,S3,27,d,0,2,1,554,5,8,3,NA,NA,20,20,20,6.31716468674728,0.554,1.80505415162455,0,0,0
8,d,l,S3,28,d,0,0,1,627,6,8,9,NA,NA,20,20,20,6.44094654063292,0.627,1.59489633173844,0,0,0
8,d,l,S3,29,l,1,6,1,537,4,5,6,NA,NA,20,20,20,6.28599809450886,0.537,1.86219739292365,0,0,0
8,d,l,S3,30,l,1,4,1,655,9,5,4,NA,NA,20,20,20,6.48463523563525,0.655,1.52671755725191,0,0,0
8,d,l,S3,31,d,0,1,1,536,6,2,4,NA,NA,20,20,20,6.2841341610708,0.536,1.86567164179104,0,0,0
8,d,l,S3,32,l,1,9,1,482,1,6,9,NA,NA,20,20,20,6.1779441140506,0.482,2.0746887966805,0,0,0
8,d,l,S3,33,d,0,3,1,530,6,5,7,NA,NA,20,20,20,6.27287700654617,0.53,1.88679245283019,0,0,0
8,d,l,S3,34,l,1,2,1,749,2,8,4,NA,NA,20,20,20,6.61873898351722,0.749,1.33511348464619,0,0,0
8,d,l,S3,35,d,0,7,1,498,5,2,9,NA,NA,20,20,20,6.21060007702465,0.498,2.00803212851406,0,0,0
8,d,l,S3,36,d,0,2,1,721,3,4,6,NA,NA,20,20,20,6.58063913728495,0.721,1.3869625520111,0,0,0
8,d,l,S3,37,l,1,0,1,751,7,9,0,NA,NA,20,20,20,6.62140565176413,0.751,1.33155792276964,0,0,0
8,d,l,S3,38,d,0,3,1,492,6,9,8,NA,NA,20,20,20,6.19847871649231,0.492,2.03252032520325,0,0,0
8,d,l,S3,39,d,0,5,1,632,0,7,2,NA,NA,20,20,20,6.44888939414686,0.632,1.58227848101266,0,0,0
8,d,l,S3,40,l,1,7,1,490,7,4,3,NA,NA,20,20,20,6.19440539110467,0.49,2.04081632653061,0,0,0
8,d,l,S5,1,l,1,1,1,1001,8,2,6,1,4,19,19,19,6.90875477931522,1.001,0.999000999000999,0,0,0
8,d,l,S5,2,d,0,3,1,637,8,7,2,0,5,20,20,20,6.45676965557216,0.637,1.56985871271586,0,0,0
8,d,l,S5,3,l,1,6,1,715,3,6,1,7,0,19,19,19,6.57228254269401,0.715,1.3986013986014,0,0,0
8,d,l,S5,4,d,0,8,1,701,1,6,7,0,4,20,20,20,6.55250788703459,0.701,1.4265335235378,0,0,0
8,d,l,S5,5,d,0,5,1,1173,4,2,6,9,0,20,20,20,7.06731984865348,1.173,0.852514919011083,0,0,0
8,d,l,S5,6,l,1,7,1,561,3,7,0,6,9,19,19,19,6.3297209055227,0.561,1.7825311942959,0,0,0
8,d,l,S5,7,d,0,2,1,743,0,1,6,5,7,20,20,20,6.61069604471776,0.743,1.34589502018843,0,0,0
8,d,l,S5,8,d,0,9,1,737,5,4,6,7,8,20,20,20,6.60258789218934,0.737,1.35685210312076,0,0,0
8,d,l,S5,9,l,1,0,1,663,5,8,0,4,6,19,19,19,6.49677499018586,0.663,1.50829562594268,0,0,0
8,d,l,S5,10,l,1,9,1,480,4,9,3,1,5,19,19,19,6.17378610390194,0.48,2.08333333333333,0,0,0
8,d,l,S5,11,l,1,6,1,1049,4,6,0,2,3,19,19,19,6.9555926083963,1.049,0.953288846520496,0,0,0
8,d,l,S5,12,d,0,0,1,1114,7,3,9,5,6,20,20,20,7.01571242048723,1.114,0.897666068222621,0,0,0
8,d,l,S5,13,l,1,6,1,805,0,1,9,5,6,19,19,19,6.69084227741856,0.805,1.24223602484472,0,0,0
8,d,l,S5,14,d,0,9,1,673,7,5,3,1,8,20,20,20,6.51174532964473,0.673,1.48588410104012,0,0,0
8,d,l,S5,15,d,0,8,1,613,5,7,6,2,9,20,20,20,6.41836493593621,0.613,1.63132137030995,0,0,0
8,d,l,S5,16,d,0,2,1,652,4,7,8,3,9,20,20,20,6.48004456192665,0.652,1.53374233128834,0,0,0
8,d,l,S5,17,l,1,5,1,753,4,5,6,1,3,19,19,19,6.62406522779989,0.753,1.32802124833997,0,0,0
8,d,l,S5,18,d,0,4,1,699,9,3,5,7,1,20,20,20,6.54965074223381,0.699,1.43061516452074,0,0,0
8,d,l,S5,19,d,0,3,1,718,1,5,9,2,8,20,20,20,6.57646956904822,0.718,1.39275766016713,0,0,0
8,d,l,S5,20,l,1,1,1,809,6,3,1,9,7,19,19,19,6.69579891705849,0.809,1.23609394313968,0,0,0
8,d,l,S5,21,d,0,7,1,560,1,5,0,8,9,20,20,20,6.32793678372919,0.56,1.78571428571429,0,0,0
8,d,l,S5,22,d,0,3,1,501,5,4,0,6,9,20,20,20,6.21660610108486,0.501,1.99600798403194,0,0,0
8,d,l,S5,23,l,1,8,1,541,1,0,8,2,5,19,19,19,6.29341927884648,0.541,1.84842883548983,0,0,0
8,d,l,S5,24,l,1,0,1,707,4,1,3,2,0,19,19,19,6.56103066589657,0.707,1.41442715700141,0,0,0
8,d,l,S5,26,d,0,4,1,1179,5,7,0,6,9,20,20,20,7.07242190053737,1.179,0.848176420695505,0,0,0
8,d,l,S5,27,l,1,6,1,704,5,0,6,7,4,19,19,19,6.55677835615804,0.704,1.42045454545455,0,0,0
8,d,l,S5,28,l,1,3,1,579,6,8,4,9,3,19,19,19,6.361302477573,0.579,1.72711571675302,0,0,0
8,d,l,S5,29,l,1,9,1,492,5,9,7,8,6,19,19,19,6.19847871649231,0.492,2.03252032520325,0,0,0
8,d,l,S5,30,d,0,4,1,548,8,7,0,6,5,20,20,20,6.30627528694802,0.548,1.82481751824817,0,0,0
8,d,l,S5,31,d,0,1,1,593,3,2,4,5,9,20,20,20,6.38519439899773,0.593,1.68634064080944,0,0,0
8,d,l,S5,32,l,1,0,1,589,9,8,0,2,3,19,19,19,6.37842618365159,0.589,1.69779286926995,0,0,0
8,d,l,S5,33,d,0,1,1,629,5,0,7,3,2,20,20,20,6.44413125670044,0.629,1.58982511923688,0,0,0
8,d,l,S5,34,d,0,5,1,568,7,1,9,6,3,20,20,20,6.34212141872115,0.568,1.76056338028169,0,0,0
8,d,l,S5,35,l,1,7,1,597,1,9,7,2,6,19,19,19,6.3919171133926,0.597,1.6750418760469,0,0,0
8,d,l,S5,36,l,1,5,1,624,9,5,0,7,8,19,19,19,6.43615036836943,0.624,1.6025641025641,0,0,0
8,d,l,S5,37,d,0,7,1,575,6,4,1,8,0,20,20,20,6.35437004079735,0.575,1.73913043478261,0,0,0
8,d,l,S5,38,l,1,2,1,863,2,5,1,8,7,19,19,19,6.76041469108343,0.863,1.15874855156431,0,0,0
8,d,l,S5,39,l,1,4,1,604,8,3,9,1,4,19,19,19,6.40357419793482,0.604,1.65562913907285,0,0,0
8,d,l,S5,40,d,0,2,1,587,3,9,7,4,6,20,20,20,6.3750248198281,0.587,1.70357751277683,0,0,0
1,l,d,S3,1,l,0,9,1,858,6,4,5,NA,NA,19,19,19,6.75460409948796,0.858,1.16550116550117,0,0,0
1,l,d,S3,2,d,1,6,1,643,8,9,6,NA,NA,20,20,20,6.46614472423762,0.643,1.5552099533437,0,0,0
1,l,d,S3,3,d,1,3,1,768,9,3,6,NA,NA,20,20,20,6.64378973314767,0.768,1.30208333333333,0,0,0
1,l,d,S3,4,l,0,4,1,861,9,5,3,NA,NA,19,19,19,6.75809450442773,0.861,1.16144018583043,0,0,0
1,l,d,S3,5,l,0,5,1,939,9,6,7,NA,NA,19,19,19,6.84481547920826,0.939,1.06496272630458,0,0,0
1,l,d,S3,6,d,1,7,1,616,2,9,7,NA,NA,20,20,20,6.42324696353352,0.616,1.62337662337662,0,0,0
1,l,d,S3,7,d,1,2,1,472,4,2,0,NA,NA,20,20,20,6.15697898558556,0.472,2.11864406779661,0,0,0
1,l,d,S3,8,l,0,5,1,460,8,2,4,NA,NA,19,19,19,6.13122648948314,0.46,2.17391304347826,0,0,0
1,l,d,S3,9,l,0,1,1,622,6,3,4,NA,NA,19,19,19,6.43294009273918,0.622,1.60771704180064,0,0,0
1,l,d,S3,10,l,0,0,1,751,9,2,3,NA,NA,19,19,19,6.62140565176413,0.751,1.33155792276964,0,0,0
1,l,d,S3,11,d,1,4,1,478,0,4,8,NA,NA,20,20,20,6.16961073249146,0.478,2.09205020920502,0,0,0
1,l,d,S3,12,l,0,0,1,550,8,7,3,NA,NA,19,19,19,6.30991827822652,0.55,1.81818181818182,0,0,0
1,l,d,S3,13,d,1,6,1,488,5,3,6,NA,NA,20,20,20,6.19031540585315,0.488,2.04918032786885,0,0,0
1,l,d,S3,14,d,1,3,1,600,3,7,1,NA,NA,20,20,20,6.39692965521615,0.6,1.66666666666667,0,0,0
1,l,d,S3,15,l,0,8,1,579,3,5,7,NA,NA,19,19,19,6.361302477573,0.579,1.72711571675302,0,0,0
1,l,d,S3,16,l,0,3,1,604,8,9,0,NA,NA,19,19,19,6.40357419793482,0.604,1.65562913907285,0,0,0
1,l,d,S3,17,d,1,6,1,607,6,3,5,NA,NA,20,20,20,6.4085287910595,0.607,1.64744645799012,0,0,0
1,l,d,S3,18,d,1,2,1,565,5,2,9,NA,NA,20,20,20,6.33682573114644,0.565,1.76991150442478,0,0,0
1,l,d,S3,19,d,1,9,1,471,9,6,2,NA,NA,20,20,20,6.15485809401642,0.471,2.12314225053079,0,0,0
1,l,d,S3,20,l,0,1,1,576,2,5,7,NA,NA,19,19,19,6.35610766069589,0.576,1.73611111111111,0,0,0
1,l,d,S3,21,d,1,5,1,508,7,1,5,NA,NA,20,20,20,6.23048144757848,0.508,1.96850393700787,0,0,0
1,l,d,S3,22,d,1,8,1,384,8,9,3,NA,NA,20,20,20,5.95064255258773,0.384,2.60416666666667,0,0,0
1,l,d,S3,23,l,0,7,1,868,1,3,5,NA,NA,19,19,19,6.76619171466035,0.868,1.15207373271889,0,0,0
1,l,d,S3,24,d,1,0,1,492,6,0,5,NA,NA,20,20,20,6.19847871649231,0.492,2.03252032520325,0,0,0
1,l,d,S3,25,d,1,6,1,368,0,6,7,NA,NA,20,20,20,5.90808293816893,0.368,2.71739130434783,0,0,0
1,l,d,S3,26,d,1,4,1,540,9,4,6,NA,NA,20,20,20,6.29156913955832,0.54,1.85185185185185,0,0,0
1,l,d,S3,27,l,0,7,1,526,3,8,1,NA,NA,19,19,19,6.26530121273771,0.526,1.90114068441065,0,0,0
1,l,d,S3,28,l,0,1,1,554,9,7,4,NA,NA,19,19,19,6.31716468674728,0.554,1.80505415162455,0,0,0
1,l,d,S3,29,d,1,9,1,462,4,9,2,NA,NA,20,20,20,6.13556489108174,0.462,2.16450216450216,0,0,0
1,l,d,S3,30,l,0,2,1,668,8,5,0,NA,NA,19,19,19,6.50428817353665,0.668,1.49700598802395,0,0,0
1,l,d,S3,31,l,0,9,1,461,2,7,8,NA,NA,19,19,19,6.13339804299665,0.461,2.16919739696312,0,0,0
1,l,d,S3,32,l,0,0,1,490,5,6,2,NA,NA,19,19,19,6.19440539110467,0.49,2.04081632653061,0,0,0
1,l,d,S3,33,d,1,7,1,382,9,4,7,NA,NA,20,20,20,5.94542060860658,0.382,2.61780104712042,0,0,0
1,l,d,S3,35,l,0,4,1,727,1,7,0,NA,NA,19,19,19,6.58892647753352,0.727,1.37551581843191,0,0,0
1,l,d,S3,36,d,1,2,1,626,2,9,5,NA,NA,20,20,20,6.4393503711001,0.626,1.59744408945687,0,0,0
1,l,d,S3,37,d,1,1,1,600,1,2,8,NA,NA,20,20,20,6.39692965521615,0.6,1.66666666666667,0,0,0
1,l,d,S3,38,l,0,3,1,532,5,0,8,NA,NA,19,19,19,6.27664348934164,0.532,1.8796992481203,0,0,0
1,l,d,S3,39,d,1,5,1,626,5,2,3,NA,NA,20,20,20,6.4393503711001,0.626,1.59744408945687,0,0,0
1,l,d,S3,40,l,0,8,1,480,4,3,0,NA,NA,19,19,19,6.17378610390194,0.48,2.08333333333333,0,0,0
1,l,d,S5,1,d,1,1,1,649,5,1,9,0,8,20,20,20,6.47543271670409,0.649,1.54083204930663,0,0,0
1,l,d,S5,2,d,1,5,1,842,4,8,5,9,2,20,20,20,6.73578001424233,0.842,1.18764845605701,0,0,0
1,l,d,S5,3,d,1,2,1,768,2,7,5,1,4,20,20,20,6.64378973314767,0.768,1.30208333333333,0,0,0
1,l,d,S5,4,l,0,1,1,733,5,3,9,4,2,17,17,17,6.59714570188665,0.733,1.36425648021828,0,0,0
1,l,d,S5,5,d,1,0,1,715,4,0,8,6,3,20,20,20,6.57228254269401,0.715,1.3986013986014,0,0,0
1,l,d,S5,6,d,1,4,1,938,9,0,3,2,4,20,20,20,6.84374994900622,0.938,1.06609808102345,0,0,0
1,l,d,S5,7,d,1,6,1,636,5,7,4,8,6,20,20,20,6.45519856334012,0.636,1.57232704402516,0,0,0
1,l,d,S5,8,l,0,5,1,654,8,2,6,1,0,17,17,17,6.4831073514572,0.654,1.52905198776758,0,0,0
1,l,d,S5,9,d,1,2,1,1255,4,1,7,2,9,20,20,20,7.13489085156588,1.255,0.796812749003984,0,0,0
1,l,d,S5,10,d,1,7,1,704,6,7,4,3,9,20,20,20,6.55677835615804,0.704,1.42045454545455,0,0,0
1,l,d,S5,11,d,1,8,1,756,8,7,0,2,3,20,20,20,6.62804137617953,0.756,1.32275132275132,0,0,0
1,l,d,S5,12,l,0,1,1,705,7,8,5,0,4,17,17,17,6.55819780281227,0.705,1.41843971631206,0,0,0
1,l,d,S5,13,d,1,3,1,1020,1,8,0,3,6,20,20,20,6.92755790627832,1.02,0.980392156862745,0,0,0
1,l,d,S5,14,d,1,9,1,851,0,3,9,6,1,20,20,20,6.74641212857337,0.851,1.17508813160987,0,0,0
1,l,d,S5,15,d,1,3,1,668,0,7,8,3,1,20,20,20,6.50428817353665,0.668,1.49700598802395,0,0,0
1,l,d,S5,16,l,0,4,1,729,7,5,8,6,1,17,17,17,6.59167373200866,0.729,1.37174211248285,0,0,0
1,l,d,S5,17,d,1,8,1,936,4,8,3,9,5,20,20,20,6.84161547647759,0.936,1.06837606837607,0,0,0
1,l,d,S5,18,d,1,4,1,658,8,6,7,0,4,20,20,20,6.48920493132532,0.658,1.51975683890577,0,0,0
1,l,d,S5,19,l,0,7,0,819,0,6,5,3,4,3,3,3,6.70808408385307,0.819,1.22100122100122,0,0,0
1,l,d,S5,20,l,0,6,1,710,3,2,5,8,7,17,17,17,6.56526497003536,0.71,1.40845070422535,0,0,0
1,l,d,S5,21,l,0,5,1,705,8,2,0,1,4,17,17,17,6.55819780281227,0.705,1.41843971631206,0,0,0
1,l,d,S5,22,d,1,0,1,512,5,6,0,9,2,20,20,20,6.23832462503951,0.512,1.953125,0,0,0
1,l,d,S5,23,l,0,2,1,936,6,7,4,3,9,17,17,17,6.84161547647759,0.936,1.06837606837607,0,0,0
1,l,d,S5,24,l,0,3,1,758,5,8,6,2,0,17,17,17,6.63068338564237,0.758,1.31926121372032,0,0,0
1,l,d,S5,25,l,0,5,1,595,8,9,7,1,0,17,17,17,6.38856140554563,0.595,1.68067226890756,0,0,0
1,l,d,S5,26,d,1,0,1,1067,8,4,3,0,2,20,20,20,6.97260625130175,1.067,0.937207122774133,0,0,0
1,l,d,S5,27,l,0,2,1,568,6,3,9,8,5,17,17,17,6.34212141872115,0.568,1.76056338028169,0,0,0
1,l,d,S5,28,d,1,9,1,760,7,9,0,3,8,20,20,20,6.63331843328038,0.76,1.31578947368421,0,0,0
1,l,d,S5,29,l,0,1,1,602,3,6,8,0,5,17,17,17,6.40025744530882,0.602,1.66112956810631,0,0,0
1,l,d,S5,30,l,0,9,1,1373,0,5,8,1,7,17,17,17,7.22475340576797,1.373,0.728332119446468,0,0,0
1,l,d,S5,31,d,1,0,1,749,8,0,3,2,6,20,20,20,6.61873898351722,0.749,1.33511348464619,0,0,0
1,l,d,S5,32,l,0,8,1,926,5,6,0,1,2,17,17,17,6.83087423464618,0.926,1.07991360691145,0,0,0
1,l,d,S5,33,l,0,3,1,593,4,9,8,0,2,17,17,17,6.38519439899773,0.593,1.68634064080944,0,0,0
1,l,d,S5,34,l,0,8,0,813,6,0,1,4,2,3,3,3,6.70073110954781,0.813,1.230012300123,0,0,0
1,l,d,S5,35,d,1,6,1,576,0,7,6,4,9,20,20,20,6.35610766069589,0.576,1.73611111111111,0,0,0
1,l,d,S5,36,l,0,9,1,621,7,3,5,8,2,17,17,17,6.43133108193348,0.621,1.61030595813205,0,0,0
1,l,d,S5,37,d,1,4,1,1147,7,4,6,3,0,20,20,20,7.04490511712937,1.147,0.871839581517001,0,0,0
1,l,d,S5,38,l,0,7,0,969,1,5,8,4,9,3,3,3,6.87626461189077,0.969,1.03199174406605,0,0,0
1,l,d,S5,39,l,0,6,1,817,1,4,3,5,7,17,17,17,6.70563909486,0.817,1.22399020807834,0,0,0
1,l,d,S5,40,l,0,7,1,1043,6,1,8,9,5,17,17,17,6.94985645500077,1.043,0.958772770853308,0,0,0
10,l,d,S3,1,l,0,8,1,1435,4,7,6,NA,NA,20,19,19,7.26892012819372,1.435,0.696864111498258,0.05,0,0.05
10,l,d,S3,2,l,0,5,1,1049,8,2,6,NA,NA,20,19,19,6.9555926083963,1.049,0.953288846520496,0.05,0,0.05
10,l,d,S3,3,d,1,8,1,1182,8,1,0,NA,NA,20,20,19,7.07496319796604,1.182,0.846023688663283,0,0.05,0.05
10,l,d,S3,4,d,1,4,1,1694,8,4,7,NA,NA,20,20,19,7.434847875212,1.694,0.590318772136954,0,0.05,0.05
10,l,d,S3,5,l,0,6,1,1266,4,1,2,NA,NA,20,19,19,7.14361760270412,1.266,0.789889415481833,0.05,0,0.05
10,l,d,S3,6,l,0,2,1,1143,4,3,0,NA,NA,20,19,19,7.04141166379481,1.143,0.874890638670166,0.05,0,0.05
10,l,d,S3,7,l,0,1,1,1469,0,4,3,NA,NA,20,19,19,7.29233717617388,1.469,0.68073519400953,0.05,0,0.05
10,l,d,S3,8,d,1,0,1,1302,1,0,5,NA,NA,20,20,19,7.17165682276851,1.302,0.768049155145929,0,0.05,0.05
10,l,d,S3,9,l,0,7,1,1345,9,6,1,NA,NA,20,19,19,7.20414929203594,1.345,0.743494423791822,0.05,0,0.05
10,l,d,S3,10,l,0,9,1,859,0,7,1,NA,NA,20,19,19,6.75576892198425,0.859,1.16414435389988,0.05,0,0.05
10,l,d,S3,11,d,1,7,1,1168,3,5,7,NA,NA,20,20,19,7.06304816338817,1.168,0.856164383561644,0,0.05,0.05
10,l,d,S3,12,d,1,1,1,1113,0,1,5,NA,NA,20,20,19,7.01481435127554,1.113,0.898472596585804,0,0.05,0.05
10,l,d,S3,13,d,1,5,1,1188,5,6,3,NA,NA,20,20,19,7.08002649992259,1.188,0.841750841750842,0,0.05,0.05
10,l,d,S3,14,l,0,3,1,1468,2,8,1,NA,NA,20,19,19,7.29165620917446,1.468,0.681198910081744,0.05,0,0.05
10,l,d,S3,15,d,1,6,1,1197,6,3,0,NA,NA,20,20,19,7.08757370555797,1.197,0.835421888053467,0,0.05,0.05
10,l,d,S3,16,d,1,4,1,993,4,9,6,NA,NA,20,20,19,6.90073066404517,0.993,1.00704934541793,0,0.05,0.05
10,l,d,S3,17,d,1,9,1,913,4,1,9,NA,NA,20,20,19,6.81673588059497,0.913,1.09529025191676,0,0.05,0.05
10,l,d,S3,18,l,0,6,1,1296,0,2,1,NA,NA,20,19,19,7.16703787691222,1.296,0.771604938271605,0.05,0,0.05
10,l,d,S3,19,l,0,8,1,1144,7,5,6,NA,NA,20,19,19,7.04228617193974,1.144,0.874125874125874,0.05,0,0.05
10,l,d,S3,20,d,1,9,1,1178,8,1,9,NA,NA,20,20,19,7.07157336421153,1.178,0.848896434634975,0,0.05,0.05
10,l,d,S3,21,d,1,8,1,971,1,8,5,NA,NA,20,20,19,6.87832646829133,0.971,1.02986611740474,0,0.05,0.05
10,l,d,S3,22,l,0,1,1,1316,9,6,4,NA,NA,20,19,19,7.18235211188526,1.316,0.759878419452887,0.05,0,0.05
10,l,d,S3,23,d,1,4,1,998,4,6,8,NA,NA,20,20,19,6.90575327631146,0.998,1.00200400801603,0,0.05,0.05
10,l,d,S3,24,d,1,0,1,934,4,5,0,NA,NA,20,20,19,6.83947643822884,0.934,1.07066381156317,0,0.05,0.05
10,l,d,S3,25,l,0,3,1,892,7,5,1,NA,NA,20,19,19,6.79346613258001,0.892,1.12107623318386,0.05,0,0.05
10,l,d,S3,26,d,1,5,1,820,5,6,4,NA,NA,20,20,19,6.7093043402583,0.82,1.21951219512195,0,0.05,0.05
10,l,d,S3,27,l,0,2,1,1166,5,8,3,NA,NA,20,19,19,7.06133436691044,1.166,0.857632933104631,0.05,0,0.05
10,l,d,S3,28,l,0,0,1,1259,6,8,9,NA,NA,20,19,19,7.13807303404435,1.259,0.79428117553614,0.05,0,0.05
10,l,d,S3,29,d,1,6,1,1148,4,5,6,NA,NA,20,20,19,7.04577657687951,1.148,0.871080139372822,0,0.05,0.05
10,l,d,S3,30,d,1,4,1,1078,9,5,4,NA,NA,20,20,19,6.98286275146894,1.078,0.927643784786642,0,0.05,0.05
10,l,d,S3,31,l,0,1,1,830,6,2,4,NA,NA,20,19,19,6.72142570079064,0.83,1.20481927710843,0.05,0,0.05
10,l,d,S3,32,d,1,9,1,997,1,6,9,NA,NA,20,20,19,6.90475076996184,0.997,1.00300902708124,0,0.05,0.05
10,l,d,S3,33,l,0,3,1,1233,6,5,7,NA,NA,20,19,19,7.11720550316434,1.233,0.8110300081103,0.05,0,0.05
10,l,d,S3,34,d,1,2,1,1047,2,8,4,NA,NA,20,20,19,6.95368421087054,1.047,0.955109837631328,0,0.05,0.05
10,l,d,S3,35,l,0,7,1,1297,5,2,9,NA,NA,20,19,19,7.16780918431644,1.297,0.771010023130301,0.05,0,0.05
10,l,d,S3,37,d,1,0,1,1032,7,9,0,NA,NA,20,20,19,6.93925394604151,1.032,0.968992248062015,0,0.05,0.05
10,l,d,S3,38,l,0,3,1,646,6,9,8,NA,NA,20,19,19,6.4707995037826,0.646,1.54798761609907,0.05,0,0.05
10,l,d,S3,39,l,0,5,1,720,0,7,2,NA,NA,20,19,19,6.5792512120101,0.72,1.38888888888889,0.05,0,0.05
10,l,d,S5,1,d,1,1,1,1715,8,2,6,1,4,20,20,20,7.44716835960004,1.715,0.583090379008746,0,0,0
10,l,d,S5,2,l,0,3,1,2502,8,7,2,0,5,20,19,19,7.82484569102686,2.502,0.399680255795364,0.05,0,0.05
10,l,d,S5,3,d,1,6,1,1105,3,6,1,7,0,20,20,20,7.00760061395185,1.105,0.904977375565611,0,0,0
10,l,d,S5,4,l,0,8,1,1240,1,6,7,0,4,20,19,19,7.12286665859908,1.24,0.806451612903226,0.05,0,0.05
10,l,d,S5,5,l,0,5,1,1626,4,2,6,9,0,20,19,19,7.39387829010776,1.626,0.615006150061501,0.05,0,0.05
10,l,d,S5,6,d,1,7,1,1237,3,7,0,6,9,20,20,20,7.12044437239249,1.237,0.808407437348424,0,0,0
10,l,d,S5,7,l,0,2,1,1503,0,1,6,5,7,20,19,19,7.31521838975297,1.503,0.665335994677312,0.05,0,0.05
10,l,d,S5,8,l,0,9,1,1618,5,4,6,7,8,20,19,19,7.38894609761844,1.618,0.618046971569839,0.05,0,0.05
10,l,d,S5,9,d,1,0,1,1141,5,8,0,4,6,20,20,20,7.03966034986208,1.141,0.876424189307625,0,0,0
10,l,d,S5,10,d,1,9,1,1587,4,9,3,1,5,20,20,20,7.36960072052641,1.587,0.630119722747322,0,0,0
10,l,d,S5,11,d,1,6,1,863,4,6,0,2,3,20,20,20,6.76041469108343,0.863,1.15874855156431,0,0,0
10,l,d,S5,12,l,0,0,1,1436,7,3,9,5,6,20,19,19,7.26961674960817,1.436,0.696378830083565,0.05,0,0.05
10,l,d,S5,13,d,1,6,1,1166,0,1,9,5,6,20,20,20,7.06133436691044,1.166,0.857632933104631,0,0,0
10,l,d,S5,14,l,0,9,1,1063,7,5,3,1,8,20,19,19,6.96885037834195,1.063,0.940733772342427,0.05,0,0.05
10,l,d,S5,15,l,0,8,1,2680,5,7,6,2,9,20,19,19,7.8935720735049,2.68,0.373134328358209,0.05,0,0.05
10,l,d,S5,16,l,0,2,1,1781,4,7,8,3,9,20,19,19,7.48493028328966,1.781,0.561482313307131,0.05,0,0.05
10,l,d,S5,17,d,1,5,1,1785,4,5,6,1,3,20,20,20,7.48717369421374,1.785,0.560224089635854,0,0,0
10,l,d,S5,18,l,0,4,1,2949,9,3,5,7,1,20,19,19,7.98922140881528,2.949,0.339097999321804,0.05,0,0.05
10,l,d,S5,19,l,0,3,1,1434,1,5,9,2,8,20,19,19,7.26822302115957,1.434,0.697350069735007,0.05,0,0.05
10,l,d,S5,20,d,1,1,1,1008,6,3,1,9,7,20,20,20,6.91572344863131,1.008,0.992063492063492,0,0,0
10,l,d,S5,21,l,0,7,1,1172,1,5,0,8,9,20,19,19,7.06646697013696,1.172,0.853242320819113,0.05,0,0.05
10,l,d,S5,22,l,0,3,1,1124,5,4,0,6,9,20,19,19,7.02464903045364,1.124,0.889679715302491,0.05,0,0.05
10,l,d,S5,23,d,1,8,1,1167,1,0,8,2,5,20,20,20,7.06219163228656,1.167,0.856898029134533,0,0,0
10,l,d,S5,24,d,1,0,1,2568,4,1,3,2,0,20,20,20,7.85088266480985,2.568,0.389408099688474,0,0,0
10,l,d,S5,25,d,1,8,1,1496,8,1,7,4,9,20,20,20,7.31055015853442,1.496,0.668449197860963,0,0,0
10,l,d,S5,27,d,1,6,1,858,5,0,6,7,4,20,20,20,6.75460409948796,0.858,1.16550116550117,0,0,0
10,l,d,S5,28,d,1,3,1,1923,6,8,4,9,3,20,20,20,7.56164174558878,1.923,0.520020800832033,0,0,0
10,l,d,S5,29,d,1,9,1,1066,5,9,7,8,6,20,20,20,6.97166860472579,1.066,0.938086303939962,0,0,0
10,l,d,S5,30,l,0,4,1,1942,8,7,0,6,5,20,19,19,7.57147364885127,1.942,0.514933058702369,0.05,0,0.05
10,l,d,S5,31,l,0,1,1,952,3,2,4,5,9,20,19,19,6.85856503479136,0.952,1.05042016806723,0.05,0,0.05
10,l,d,S5,32,d,1,0,1,2714,9,8,0,2,3,20,20,20,7.90617884039481,2.714,0.368459837877671,0,0,0
10,l,d,S5,33,l,0,1,1,1877,5,0,7,3,2,20,19,19,7.53743003658651,1.877,0.53276505061268,0.05,0,0.05
10,l,d,S5,34,l,0,5,1,1830,7,1,9,6,3,20,19,19,7.51207124583547,1.83,0.546448087431694,0.05,0,0.05
10,l,d,S5,35,d,1,7,1,1392,1,9,7,2,6,20,20,20,7.23849684089437,1.392,0.718390804597701,0,0,0
10,l,d,S5,36,d,1,5,1,1084,9,5,0,7,8,20,20,20,6.98841318199959,1.084,0.922509225092251,0,0,0
10,l,d,S5,37,l,0,7,1,1140,6,4,1,8,0,20,19,19,7.03878354138854,1.14,0.87719298245614,0.05,0,0.05
10,l,d,S5,38,d,1,2,1,1034,2,5,1,8,7,20,20,20,6.94119005506837,1.034,0.967117988394584,0,0,0
10,l,d,S5,39,d,1,4,1,1224,8,3,9,1,4,20,20,20,7.10987946307227,1.224,0.816993464052288,0,0,0
10,l,d,S5,40,l,0,2,1,2267,3,9,7,4,6,20,19,19,7.72621265050753,2.267,0.441111601235113,0.05,0,0.05
102,l,d,S3,1,l,0,8,1,882,4,7,6,NA,NA,20,20,20,6.78219205600679,0.882,1.13378684807256,0,0,0
102,l,d,S3,2,l,0,5,1,970,8,2,6,NA,NA,20,20,20,6.87729607149743,0.97,1.03092783505155,0,0,0
102,l,d,S3,3,d,1,8,1,619,8,1,0,NA,NA,20,20,19,6.4281052726846,0.619,1.61550888529887,0,0.05,0.05
102,l,d,S3,4,d,1,4,1,989,8,4,7,NA,NA,20,20,19,6.89669433162271,0.989,1.01112234580384,0,0.05,0.05
102,l,d,S3,5,l,0,6,1,793,4,1,2,NA,NA,20,20,20,6.67582322163485,0.793,1.26103404791929,0,0,0
102,l,d,S3,6,l,0,2,1,893,4,3,0,NA,NA,20,20,20,6.7945865808765,0.893,1.11982082866741,0,0,0
102,l,d,S3,7,l,0,1,1,917,0,4,3,NA,NA,20,20,20,6.82110747225646,0.917,1.09051254089422,0,0,0
102,l,d,S3,9,l,0,7,1,507,9,6,1,NA,NA,20,20,20,6.22851100359118,0.507,1.9723865877712,0,0,0
102,l,d,S3,10,l,0,9,1,575,0,7,1,NA,NA,20,20,20,6.35437004079735,0.575,1.73913043478261,0,0,0
102,l,d,S3,11,d,1,7,1,939,3,5,7,NA,NA,20,20,19,6.84481547920826,0.939,1.06496272630458,0,0.05,0.05
102,l,d,S3,12,d,1,1,1,821,0,1,5,NA,NA,20,20,19,6.71052310945243,0.821,1.21802679658953,0,0.05,0.05
102,l,d,S3,13,d,1,5,1,948,5,6,3,NA,NA,20,20,19,6.85435450225502,0.948,1.05485232067511,0,0.05,0.05
102,l,d,S3,14,l,0,3,1,861,2,8,1,NA,NA,20,20,20,6.75809450442773,0.861,1.16144018583043,0,0,0
102,l,d,S3,15,d,1,6,1,791,6,3,0,NA,NA,20,20,19,6.67329796776765,0.791,1.26422250316056,0,0.05,0.05
102,l,d,S3,16,d,1,4,1,735,4,9,6,NA,NA,20,20,19,6.59987049921284,0.735,1.36054421768707,0,0.05,0.05
102,l,d,S3,17,d,1,9,1,773,4,1,9,NA,NA,20,20,19,6.65027904858742,0.773,1.29366106080207,0,0.05,0.05
102,l,d,S3,18,l,0,6,1,441,0,2,1,NA,NA,20,20,20,6.08904487544685,0.441,2.26757369614512,0,0,0
102,l,d,S3,19,l,0,8,1,887,7,5,6,NA,NA,20,20,20,6.78784498230958,0.887,1.12739571589628,0,0,0
102,l,d,S3,20,d,1,9,1,939,8,1,9,NA,NA,20,20,19,6.84481547920826,0.939,1.06496272630458,0,0.05,0.05
102,l,d,S3,21,d,1,8,1,717,1,8,5,NA,NA,20,20,19,6.57507584059962,0.717,1.39470013947001,0,0.05,0.05
102,l,d,S3,22,l,0,1,1,584,9,6,4,NA,NA,20,20,20,6.36990098282823,0.584,1.71232876712329,0,0,0
102,l,d,S3,23,d,1,4,1,460,4,6,8,NA,NA,20,20,19,6.13122648948314,0.46,2.17391304347826,0,0.05,0.05
102,l,d,S3,24,d,1,0,1,925,4,5,0,NA,NA,20,20,19,6.82979373751242,0.925,1.08108108108108,0,0.05,0.05
102,l,d,S3,25,l,0,3,1,588,7,5,1,NA,NA,20,20,20,6.37672694789863,0.588,1.70068027210884,0,0,0
102,l,d,S3,26,d,1,5,1,668,5,6,4,NA,NA,20,20,19,6.50428817353665,0.668,1.49700598802395,0,0.05,0.05
102,l,d,S3,27,l,0,2,1,557,5,8,3,NA,NA,20,20,20,6.32256523992728,0.557,1.79533213644524,0,0,0
102,l,d,S3,28,l,0,0,1,838,6,8,9,NA,NA,20,20,20,6.73101810048208,0.838,1.19331742243437,0,0,0
102,l,d,S3,29,d,1,6,1,824,4,5,6,NA,NA,20,20,19,6.71417052990947,0.824,1.21359223300971,0,0.05,0.05
102,l,d,S3,30,d,1,4,1,759,9,5,4,NA,NA,20,20,19,6.63200177739563,0.759,1.31752305665349,0,0.05,0.05
102,l,d,S3,31,l,0,1,1,772,6,2,4,NA,NA,20,20,20,6.64898455002478,0.772,1.29533678756477,0,0,0
102,l,d,S3,32,d,1,9,1,769,1,6,9,NA,NA,20,20,19,6.64509096950564,0.769,1.30039011703511,0,0.05,0.05
102,l,d,S3,33,l,0,3,1,613,6,5,7,NA,NA,20,20,20,6.41836493593621,0.613,1.63132137030995,0,0,0
102,l,d,S3,34,d,1,2,1,677,2,8,4,NA,NA,20,20,19,6.51767127291227,0.677,1.47710487444609,0,0.05,0.05
102,l,d,S3,35,l,0,7,1,601,5,2,9,NA,NA,20,20,20,6.39859493453521,0.601,1.66389351081531,0,0,0
102,l,d,S3,36,l,0,2,1,1205,3,4,6,NA,NA,20,20,20,7.09423484592476,1.205,0.829875518672199,0,0,0
102,l,d,S3,37,d,1,0,1,884,7,9,0,NA,NA,20,20,19,6.78445706263764,0.884,1.13122171945701,0,0.05,0.05
102,l,d,S3,38,l,0,3,1,796,6,9,8,NA,NA,20,20,20,6.67959918584438,0.796,1.25628140703518,0,0,0
102,l,d,S3,39,l,0,5,1,908,0,7,2,NA,NA,20,20,20,6.81124437860129,0.908,1.10132158590308,0,0,0
102,l,d,S3,40,d,1,7,1,683,7,4,3,NA,NA,20,20,19,6.52649485957079,0.683,1.46412884333821,0,0.05,0.05
102,l,d,S5,1,d,1,1,1,1190,8,2,6,1,4,20,20,20,7.08170858610557,1.19,0.840336134453782,0,0,0
102,l,d,S5,2,l,0,3,1,906,8,7,2,0,5,20,20,20,6.80903930604298,0.906,1.1037527593819,0,0,0
102,l,d,S5,3,d,1,6,1,581,3,6,1,7,0,20,20,20,6.36475075685191,0.581,1.72117039586919,0,0,0
102,l,d,S5,4,l,0,8,1,729,1,6,7,0,4,20,20,20,6.59167373200866,0.729,1.37174211248285,0,0,0
102,l,d,S5,5,l,0,5,1,740,4,2,6,9,0,20,20,20,6.60665018619822,0.74,1.35135135135135,0,0,0
102,l,d,S5,6,d,1,7,1,794,3,7,0,6,9,20,20,20,6.67708346124714,0.794,1.25944584382872,0,0,0
102,l,d,S5,7,l,0,2,1,782,0,1,6,5,7,20,20,20,6.66185474054531,0.782,1.27877237851662,0,0,0
102,l,d,S5,8,l,0,9,1,746,5,4,6,7,8,20,20,20,6.61472560020376,0.746,1.34048257372654,0,0,0
102,l,d,S5,9,d,1,0,1,888,5,8,0,4,6,20,20,20,6.78897174299217,0.888,1.12612612612613,0,0,0
102,l,d,S5,10,d,1,9,1,644,4,9,3,1,5,20,20,20,6.46769872610435,0.644,1.5527950310559,0,0,0
102,l,d,S5,11,d,1,6,1,1034,4,6,0,2,3,20,20,20,6.94119005506837,1.034,0.967117988394584,0,0,0
102,l,d,S5,12,l,0,0,1,788,7,3,9,5,6,20,20,20,6.66949808985788,0.788,1.26903553299492,0,0,0
102,l,d,S5,13,d,1,6,1,1032,0,1,9,5,6,20,20,20,6.93925394604151,1.032,0.968992248062015,0,0,0
102,l,d,S5,14,l,0,9,1,810,7,5,3,1,8,20,20,20,6.69703424766648,0.81,1.23456790123457,0,0,0
102,l,d,S5,15,l,0,8,1,657,5,7,6,2,9,20,20,20,6.48768401848461,0.657,1.5220700152207,0,0,0
102,l,d,S5,16,l,0,2,1,1531,4,7,8,3,9,20,20,20,7.33367639565768,1.531,0.653167864141084,0,0,0
102,l,d,S5,17,d,1,5,1,881,4,5,6,1,3,20,20,20,6.78105762593618,0.881,1.13507377979569,0,0,0
102,l,d,S5,18,l,0,4,1,917,9,3,5,7,1,20,20,20,6.82110747225646,0.917,1.09051254089422,0,0,0
102,l,d,S5,19,l,0,3,1,1167,1,5,9,2,8,20,20,20,7.06219163228656,1.167,0.856898029134533,0,0,0
102,l,d,S5,20,d,1,1,1,960,6,3,1,9,7,20,20,20,6.86693328446188,0.96,1.04166666666667,0,0,0
102,l,d,S5,21,l,0,7,1,937,1,5,0,8,9,20,20,20,6.84268328223842,0.937,1.06723585912487,0,0,0
102,l,d,S5,22,l,0,3,1,763,5,4,0,6,9,20,20,20,6.63725803128446,0.763,1.31061598951507,0,0,0
102,l,d,S5,23,d,1,8,1,604,1,0,8,2,5,20,20,20,6.40357419793482,0.604,1.65562913907285,0,0,0
102,l,d,S5,24,d,1,0,1,1111,4,1,3,2,0,20,20,20,7.01301578963963,1.111,0.9000900090009,0,0,0
102,l,d,S5,25,d,1,8,1,511,8,1,7,4,9,20,20,20,6.2363695902037,0.511,1.95694716242661,0,0,0
102,l,d,S5,26,l,0,4,1,702,5,7,0,6,9,20,20,20,6.55393340402581,0.702,1.42450142450142,0,0,0
102,l,d,S5,27,d,1,6,1,837,5,0,6,7,4,20,20,20,6.72982407048948,0.837,1.194743130227,0,0,0
102,l,d,S5,28,d,1,3,1,911,6,8,4,9,3,20,20,20,6.81454289725996,0.911,1.09769484083425,0,0,0
102,l,d,S5,29,d,1,9,1,855,5,9,7,8,6,20,20,20,6.75110146893676,0.855,1.16959064327485,0,0,0
102,l,d,S5,30,l,0,4,1,1000,8,7,0,6,5,20,20,20,6.90775527898214,1,1,0,0,0
102,l,d,S5,31,l,0,1,1,1063,3,2,4,5,9,20,20,20,6.96885037834195,1.063,0.940733772342427,0,0,0
102,l,d,S5,32,d,1,0,1,984,9,8,0,2,3,20,20,20,6.89162589705225,0.984,1.01626016260163,0,0,0
102,l,d,S5,33,l,0,1,1,936,5,0,7,3,2,20,20,20,6.84161547647759,0.936,1.06837606837607,0,0,0
102,l,d,S5,34,l,0,5,1,982,7,1,9,6,3,20,20,20,6.88959130835447,0.982,1.0183299389002,0,0,0
102,l,d,S5,35,d,1,7,1,790,1,9,7,2,6,20,20,20,6.67203294546107,0.79,1.26582278481013,0,0,0
102,l,d,S5,36,d,1,5,1,1186,9,5,0,7,8,20,20,20,7.07834157955767,1.186,0.843170320404722,0,0,0
102,l,d,S5,37,l,0,7,1,762,6,4,1,8,0,20,20,20,6.63594655568665,0.762,1.31233595800525,0,0,0
102,l,d,S5,38,d,1,2,1,699,2,5,1,8,7,20,20,20,6.54965074223381,0.699,1.43061516452074,0,0,0
102,l,d,S5,39,d,1,4,1,627,8,3,9,1,4,20,20,20,6.44094654063292,0.627,1.59489633173844,0,0,0
102,l,d,S5,40,l,0,2,1,1145,3,9,7,4,6,20,20,20,7.04315991598834,1.145,0.873362445414847,0,0,0
103,d,l,S3,1,d,0,9,1,501,6,4,5,NA,NA,20,20,20,6.21660610108486,0.501,1.99600798403194,0,0,0
103,d,l,S3,2,l,1,6,1,488,8,9,6,NA,NA,20,20,20,6.19031540585315,0.488,2.04918032786885,0,0,0
103,d,l,S3,3,l,1,3,1,692,9,3,6,NA,NA,20,20,20,6.53958595561767,0.692,1.44508670520231,0,0,0
103,d,l,S3,4,d,0,4,1,796,9,5,3,NA,NA,20,20,20,6.67959918584438,0.796,1.25628140703518,0,0,0
103,d,l,S3,5,d,0,5,1,752,9,6,7,NA,NA,20,20,20,6.62273632394984,0.752,1.32978723404255,0,0,0
103,d,l,S3,6,l,1,7,1,561,2,9,7,NA,NA,20,20,20,6.3297209055227,0.561,1.7825311942959,0,0,0
103,d,l,S3,7,l,1,2,1,835,4,2,0,NA,NA,20,20,20,6.72743172485086,0.835,1.19760479041916,0,0,0
103,d,l,S3,8,d,0,5,1,1693,8,2,4,NA,NA,20,20,20,7.43425738213314,1.693,0.590667454223272,0,0,0
103,d,l,S3,9,d,0,1,1,1181,6,3,4,NA,NA,20,20,20,7.07411681619736,1.181,0.846740050804403,0,0,0
103,d,l,S3,10,d,0,0,1,813,9,2,3,NA,NA,20,20,20,6.70073110954781,0.813,1.230012300123,0,0,0
103,d,l,S3,11,l,1,4,1,745,0,4,8,NA,NA,20,20,20,6.61338421837956,0.745,1.34228187919463,0,0,0
103,d,l,S3,12,d,0,0,1,595,8,7,3,NA,NA,20,20,20,6.38856140554563,0.595,1.68067226890756,0,0,0
103,d,l,S3,13,l,1,6,1,755,5,3,6,NA,NA,20,20,20,6.62671774924902,0.755,1.32450331125828,0,0,0
103,d,l,S3,14,l,1,3,1,660,3,7,1,NA,NA,20,20,20,6.49223983502047,0.66,1.51515151515152,0,0,0
103,d,l,S3,15,d,0,8,1,501,3,5,7,NA,NA,20,20,20,6.21660610108486,0.501,1.99600798403194,0,0,0
103,d,l,S3,16,d,0,3,1,765,8,9,0,NA,NA,20,20,20,6.63987583382654,0.765,1.30718954248366,0,0,0
103,d,l,S3,17,l,1,6,1,669,6,3,5,NA,NA,20,20,20,6.50578406012823,0.669,1.49476831091181,0,0,0
103,d,l,S3,18,l,1,2,1,642,5,2,9,NA,NA,20,20,20,6.46458830368996,0.642,1.55763239875389,0,0,0
103,d,l,S3,19,l,1,9,1,616,9,6,2,NA,NA,20,20,20,6.42324696353352,0.616,1.62337662337662,0,0,0
103,d,l,S3,20,d,0,1,1,659,2,5,7,NA,NA,20,20,20,6.49072353450251,0.659,1.51745068285281,0,0,0
103,d,l,S3,21,l,1,5,1,576,7,1,5,NA,NA,20,20,20,6.35610766069589,0.576,1.73611111111111,0,0,0
103,d,l,S3,22,l,1,8,1,477,8,9,3,NA,NA,20,20,20,6.16751649088834,0.477,2.09643605870021,0,0,0
103,d,l,S3,23,d,0,7,1,709,1,3,5,NA,NA,20,20,20,6.56385552653213,0.709,1.41043723554302,0,0,0
103,d,l,S3,24,l,1,0,1,761,6,0,5,NA,NA,20,20,20,6.63463335786169,0.761,1.31406044678055,0,0,0
103,d,l,S3,25,l,1,6,1,570,0,6,7,NA,NA,20,20,20,6.3456363608286,0.57,1.75438596491228,0,0,0
103,d,l,S3,26,l,1,4,1,959,9,4,6,NA,NA,20,20,20,6.86589107488344,0.959,1.04275286757039,0,0,0
103,d,l,S3,27,d,0,7,1,520,3,8,1,NA,NA,20,20,20,6.25382881157547,0.52,1.92307692307692,0,0,0
103,d,l,S3,28,d,0,1,1,787,9,7,4,NA,NA,20,20,20,6.6682282484174,0.787,1.27064803049555,0,0,0
103,d,l,S3,29,l,1,9,1,719,4,9,2,NA,NA,20,20,20,6.57786135772105,0.719,1.39082058414465,0,0,0
103,d,l,S3,30,d,0,2,1,797,8,5,0,NA,NA,20,20,20,6.68085467879022,0.797,1.25470514429109,0,0,0
103,d,l,S3,31,d,0,9,1,685,2,7,8,NA,NA,20,20,20,6.52941883826223,0.685,1.45985401459854,0,0,0
103,d,l,S3,32,d,0,0,1,801,5,6,2,NA,NA,20,20,20,6.68586094706836,0.801,1.24843945068664,0,0,0
103,d,l,S3,33,l,1,7,1,581,9,4,7,NA,NA,20,20,20,6.36475075685191,0.581,1.72117039586919,0,0,0
103,d,l,S3,34,d,0,8,1,981,5,6,1,NA,NA,20,20,20,6.88857245956536,0.981,1.01936799184506,0,0,0
103,d,l,S3,35,d,0,4,1,521,1,7,0,NA,NA,20,20,20,6.25575004175337,0.521,1.91938579654511,0,0,0
103,d,l,S3,36,l,1,2,1,684,2,9,5,NA,NA,20,20,20,6.52795791762255,0.684,1.46198830409357,0,0,0
103,d,l,S3,37,l,1,1,1,568,1,2,8,NA,NA,20,20,20,6.34212141872115,0.568,1.76056338028169,0,0,0
103,d,l,S3,38,d,0,3,1,657,5,0,8,NA,NA,20,20,20,6.48768401848461,0.657,1.5220700152207,0,0,0
103,d,l,S3,39,l,1,5,1,694,5,2,3,NA,NA,20,20,20,6.5424719605068,0.694,1.44092219020173,0,0,0
103,d,l,S3,40,d,0,8,1,686,4,3,0,NA,NA,20,20,20,6.53087762772588,0.686,1.45772594752187,0,0,0
103,d,l,S5,1,l,1,1,1,947,5,1,9,0,8,19,19,19,6.85329909318608,0.947,1.05596620908131,0,0,0
103,d,l,S5,2,l,1,5,1,729,4,8,5,9,2,19,19,19,6.59167373200866,0.729,1.37174211248285,0,0,0
103,d,l,S5,3,l,1,2,1,891,2,7,5,1,4,19,19,19,6.79234442747081,0.891,1.12233445566779,0,0,0
103,d,l,S5,4,d,0,1,1,675,5,3,9,4,2,20,20,20,6.51471269087253,0.675,1.48148148148148,0,0,0
103,d,l,S5,5,l,1,0,1,600,4,0,8,6,3,19,19,19,6.39692965521615,0.6,1.66666666666667,0,0,0
103,d,l,S5,6,l,1,4,1,563,9,0,3,2,4,19,19,19,6.33327962813969,0.563,1.77619893428064,0,0,0
103,d,l,S5,7,l,1,6,1,629,5,7,4,8,6,19,19,19,6.44413125670044,0.629,1.58982511923688,0,0,0
103,d,l,S5,8,d,0,5,1,747,8,2,6,1,0,20,20,20,6.61606518513282,0.747,1.33868808567604,0,0,0
103,d,l,S5,9,l,1,2,1,793,4,1,7,2,9,19,19,19,6.67582322163485,0.793,1.26103404791929,0,0,0
103,d,l,S5,10,l,1,7,1,1013,6,7,4,3,9,19,19,19,6.92067150424868,1.013,0.987166831194472,0,0,0
103,d,l,S5,11,l,1,8,1,501,8,7,0,2,3,19,19,19,6.21660610108486,0.501,1.99600798403194,0,0,0
103,d,l,S5,12,d,0,1,1,1120,7,8,5,0,4,20,20,20,7.02108396428914,1.12,0.892857142857143,0,0,0
103,d,l,S5,13,l,1,3,1,587,1,8,0,3,6,19,19,19,6.3750248198281,0.587,1.70357751277683,0,0,0
103,d,l,S5,14,l,1,9,1,679,0,3,9,6,1,19,19,19,6.5206211275587,0.679,1.47275405007364,0,0,0
103,d,l,S5,15,l,1,3,1,555,0,7,8,3,1,19,19,19,6.31896811374643,0.555,1.8018018018018,0,0,0
103,d,l,S5,16,d,0,4,1,865,7,5,8,6,1,20,20,20,6.76272950693188,0.865,1.15606936416185,0,0,0
103,d,l,S5,17,l,1,8,1,853,4,8,3,9,5,19,19,19,6.74875954749168,0.853,1.17233294255569,0,0,0
103,d,l,S5,18,l,1,4,1,735,8,6,7,0,4,19,19,19,6.59987049921284,0.735,1.36054421768707,0,0,0
103,d,l,S5,19,d,0,7,1,593,0,6,5,3,4,20,20,20,6.38519439899773,0.593,1.68634064080944,0,0,0
103,d,l,S5,20,d,0,6,1,697,3,2,5,8,7,20,20,20,6.54678541076052,0.697,1.43472022955524,0,0,0
103,d,l,S5,21,d,0,5,1,729,8,2,0,1,4,20,20,20,6.59167373200866,0.729,1.37174211248285,0,0,0
103,d,l,S5,22,l,1,0,1,759,5,6,0,9,2,19,19,19,6.63200177739563,0.759,1.31752305665349,0,0,0
103,d,l,S5,23,d,0,2,1,705,6,7,4,3,9,20,20,20,6.55819780281227,0.705,1.41843971631206,0,0,0
103,d,l,S5,24,d,0,3,1,876,5,8,6,2,0,20,20,20,6.77536609093639,0.876,1.14155251141553,0,0,0
103,d,l,S5,25,d,0,5,1,561,8,9,7,1,0,20,20,20,6.3297209055227,0.561,1.7825311942959,0,0,0
103,d,l,S5,26,l,1,0,1,890,8,4,3,0,2,19,19,19,6.79122146272619,0.89,1.12359550561798,0,0,0
103,d,l,S5,27,d,0,2,1,890,6,3,9,8,5,20,20,20,6.79122146272619,0.89,1.12359550561798,0,0,0
103,d,l,S5,29,d,0,1,1,730,3,6,8,0,5,20,20,20,6.59304453414244,0.73,1.36986301369863,0,0,0
103,d,l,S5,30,d,0,9,1,580,0,5,8,1,7,20,20,20,6.36302810354046,0.58,1.72413793103448,0,0,0
103,d,l,S5,31,l,1,0,1,808,8,0,3,2,6,19,19,19,6.69456205852109,0.808,1.23762376237624,0,0,0
103,d,l,S5,32,d,0,8,1,671,5,6,0,1,2,20,20,20,6.50876913697168,0.671,1.4903129657228,0,0,0
103,d,l,S5,33,d,0,3,1,688,4,9,8,0,2,20,20,20,6.53378883793334,0.688,1.45348837209302,0,0,0
103,d,l,S5,34,d,0,8,1,640,6,0,1,4,2,20,20,20,6.46146817635372,0.64,1.5625,0,0,0
103,d,l,S5,35,l,1,6,1,670,0,7,6,4,9,19,19,19,6.50727771238501,0.67,1.49253731343284,0,0,0
103,d,l,S5,36,d,0,9,1,650,7,3,5,8,2,20,20,20,6.47697236288968,0.65,1.53846153846154,0,0,0
103,d,l,S5,37,l,1,4,1,927,7,4,6,3,0,19,19,19,6.83195356556585,0.927,1.07874865156419,0,0,0
103,d,l,S5,38,d,0,7,1,902,1,5,8,4,9,20,20,20,6.80461452006262,0.902,1.10864745011086,0,0,0
103,d,l,S5,39,d,0,6,1,741,1,4,3,5,7,20,20,20,6.60800062529609,0.741,1.34952766531714,0,0,0
103,d,l,S5,40,d,0,7,1,623,6,1,8,9,5,20,20,20,6.43454651878745,0.623,1.60513643659711,0,0,0
105,l,d,S3,1,l,0,9,1,1300,6,4,5,NA,NA,20,20,20,7.17011954344963,1.3,0.769230769230769,0,0,0
105,l,d,S3,2,d,1,6,1,1747,8,9,6,NA,NA,19,19,19,7.46565531013406,1.747,0.572409845449342,0,0,0
105,l,d,S3,4,l,0,4,1,1606,9,5,3,NA,NA,20,20,20,7.38150189450671,1.606,0.62266500622665,0,0,0
105,l,d,S3,5,l,0,5,1,2622,9,6,7,NA,NA,20,20,20,7.87169266432365,2.622,0.3813882532418,0,0,0
105,l,d,S3,6,d,1,7,1,1720,2,9,7,NA,NA,19,19,19,7.4500795698075,1.72,0.581395348837209,0,0,0
105,l,d,S3,7,d,1,2,1,2015,4,2,0,NA,NA,19,19,19,7.60837447438078,2.015,0.496277915632754,0,0,0
105,l,d,S3,8,l,0,5,1,1730,8,2,4,NA,NA,20,20,20,7.45587668749182,1.73,0.578034682080925,0,0,0
105,l,d,S3,9,l,0,1,1,1608,6,3,4,NA,NA,20,20,20,7.38274644973891,1.608,0.621890547263682,0,0,0
105,l,d,S3,10,l,0,0,1,1588,9,2,3,NA,NA,20,20,20,7.37023064180708,1.588,0.629722921914358,0,0,0
105,l,d,S3,11,d,1,4,1,1536,0,4,8,NA,NA,19,19,19,7.33693691370762,1.536,0.651041666666667,0,0,0
105,l,d,S3,12,l,0,0,1,1758,8,7,3,NA,NA,20,20,20,7.47193207824512,1.758,0.568828213879408,0,0,0
105,l,d,S3,13,d,1,6,1,1475,5,3,6,NA,NA,19,19,19,7.29641326877392,1.475,0.677966101694915,0,0,0
105,l,d,S3,14,d,1,3,1,1256,3,7,1,NA,NA,19,19,19,7.13568734702814,1.256,0.796178343949045,0,0,0
105,l,d,S3,15,l,0,8,1,1713,3,5,7,NA,NA,20,20,20,7.44600149832412,1.713,0.583771161704612,0,0,0
105,l,d,S3,16,l,0,3,1,1828,8,9,0,NA,NA,20,20,20,7.5109777520141,1.828,0.547045951859956,0,0,0
105,l,d,S3,17,d,1,6,1,1427,6,3,5,NA,NA,19,19,19,7.26332961747684,1.427,0.700770847932726,0,0,0
105,l,d,S3,18,d,1,2,1,1270,5,2,9,NA,NA,19,19,19,7.14677217945264,1.27,0.78740157480315,0,0,0
105,l,d,S3,19,d,1,9,1,1294,9,6,2,NA,NA,19,19,19,7.16549347506085,1.294,0.772797527047913,0,0,0
105,l,d,S3,20,l,0,1,1,1306,2,5,7,NA,NA,20,20,20,7.17472430983638,1.306,0.765696784073507,0,0,0
105,l,d,S3,21,d,1,5,1,1682,7,1,5,NA,NA,19,19,19,7.42773884053289,1.682,0.594530321046373,0,0,0
105,l,d,S3,22,d,1,8,1,1230,8,9,3,NA,NA,19,19,19,7.11476944836646,1.23,0.813008130081301,0,0,0
105,l,d,S3,23,l,0,7,1,1296,1,3,5,NA,NA,20,20,20,7.16703787691222,1.296,0.771604938271605,0,0,0
105,l,d,S3,24,d,1,0,1,1612,6,0,5,NA,NA,19,19,19,7.38523092306657,1.612,0.620347394540943,0,0,0
105,l,d,S3,25,d,1,6,1,1080,0,6,7,NA,NA,19,19,19,6.98471632011827,1.08,0.925925925925926,0,0,0
105,l,d,S3,26,d,1,4,1,1332,9,4,6,NA,NA,19,19,19,7.19443685110033,1.332,0.750750750750751,0,0,0
105,l,d,S3,27,l,0,7,1,1114,3,8,1,NA,NA,20,20,20,7.01571242048723,1.114,0.897666068222621,0,0,0
105,l,d,S3,28,l,0,1,1,2289,9,7,4,NA,NA,20,20,20,7.73587031995257,2.289,0.436871996505024,0,0,0
105,l,d,S3,29,d,1,9,1,741,4,9,2,NA,NA,19,19,19,6.60800062529609,0.741,1.34952766531714,0,0,0
105,l,d,S3,30,l,0,2,1,1739,8,5,0,NA,NA,20,20,20,7.46106551435428,1.739,0.575043128234618,0,0,0
105,l,d,S3,31,l,0,9,1,2233,2,7,8,NA,NA,20,20,20,7.71110125184016,2.233,0.447828034034931,0,0,0
105,l,d,S3,32,l,0,0,1,1467,5,6,2,NA,NA,20,20,20,7.29097477814298,1.467,0.681663258350375,0,0,0
105,l,d,S3,33,d,1,7,1,1932,9,4,7,NA,NA,19,19,19,7.56631101477246,1.932,0.5175983436853,0,0,0
105,l,d,S3,34,l,0,8,1,1698,5,6,1,NA,NA,20,20,20,7.43720636687129,1.698,0.588928150765607,0,0,0
105,l,d,S3,35,l,0,4,1,1529,1,7,0,NA,NA,20,20,20,7.33236920592906,1.529,0.65402223675605,0,0,0
105,l,d,S3,36,d,1,2,1,1212,2,9,5,NA,NA,19,19,19,7.10002716662926,1.212,0.825082508250825,0,0,0
105,l,d,S3,37,d,1,1,1,2131,1,2,8,NA,NA,19,19,19,7.66434663209862,2.131,0.469263256687001,0,0,0
105,l,d,S3,38,l,0,3,1,1337,5,0,8,NA,NA,20,20,20,7.19818357710194,1.337,0.74794315632012,0,0,0
105,l,d,S3,39,d,1,5,1,1103,5,2,3,NA,NA,19,19,19,7.0057890192535,1.103,0.906618313689937,0,0,0
105,l,d,S3,40,l,0,8,1,1394,4,3,0,NA,NA,20,20,20,7.23993259132047,1.394,0.717360114777618,0,0,0
105,l,d,S5,2,d,1,5,1,1840,4,8,5,9,2,18,17,17,7.51752085060303,1.84,0.543478260869565,0.0555555555555556,0,0.0555555555555556
105,l,d,S5,3,d,1,2,1,1254,2,7,5,1,4,18,17,17,7.13409372119287,1.254,0.797448165869219,0.0555555555555556,0,0.0555555555555556
105,l,d,S5,5,d,1,0,1,2426,4,0,8,6,3,18,17,17,7.793999089504,2.426,0.412201154163232,0.0555555555555556,0,0.0555555555555556
105,l,d,S5,6,d,1,4,1,1685,9,0,3,2,4,18,17,17,7.42952084278646,1.685,0.593471810089021,0.0555555555555556,0,0.0555555555555556
105,l,d,S5,7,d,1,6,1,1573,5,7,4,8,6,18,17,17,7.36073990305828,1.573,0.635727908455181,0.0555555555555556,0,0.0555555555555556
105,l,d,S5,8,l,0,5,1,1398,8,2,6,1,0,19,18,18,7.24279792279376,1.398,0.715307582260372,0.0526315789473685,0,0.0526315789473685
105,l,d,S5,9,d,1,2,1,1173,4,1,7,2,9,18,17,17,7.06731984865348,1.173,0.852514919011083,0.0555555555555556,0,0.0555555555555556
105,l,d,S5,11,d,1,8,1,2743,8,7,0,2,3,18,17,17,7.9168074909376,2.743,0.364564345607,0.0555555555555556,0,0.0555555555555556
105,l,d,S5,12,l,0,1,1,1749,7,8,5,0,4,19,18,18,7.4667994750186,1.749,0.571755288736421,0.0526315789473685,0,0.0526315789473685
105,l,d,S5,13,d,1,3,1,1814,1,8,0,3,6,18,17,17,7.50328963067508,1.814,0.551267916207277,0.0555555555555556,0,0.0555555555555556
105,l,d,S5,15,d,1,3,1,1427,0,7,8,3,1,18,17,17,7.26332961747684,1.427,0.700770847932726,0.0555555555555556,0,0.0555555555555556
105,l,d,S5,16,l,0,4,1,1762,7,5,8,6,1,19,18,18,7.47420480649612,1.762,0.567536889897843,0.0526315789473685,0,0.0526315789473685
105,l,d,S5,17,d,1,8,1,2951,4,8,3,9,5,18,17,17,7.98989937494294,2.951,0.338868180277872,0.0555555555555556,0,0.0555555555555556
105,l,d,S5,18,d,1,4,1,1532,8,6,7,0,4,18,17,17,7.33432935030054,1.532,0.652741514360313,0.0555555555555556,0,0.0555555555555556
105,l,d,S5,19,l,0,7,1,1602,0,6,5,3,4,19,18,18,7.3790081276283,1.602,0.624219725343321,0.0526315789473685,0,0.0526315789473685
105,l,d,S5,20,l,0,6,1,1762,3,2,5,8,7,19,18,18,7.47420480649612,1.762,0.567536889897843,0.0526315789473685,0,0.0526315789473685
105,l,d,S5,21,l,0,5,1,1523,8,2,0,1,4,19,18,18,7.32843735289516,1.523,0.656598818122127,0.0526315789473685,0,0.0526315789473685
105,l,d,S5,22,d,1,0,1,2817,5,6,0,9,2,18,17,17,7.94342776787637,2.817,0.35498757543486,0.0555555555555556,0,0.0555555555555556
105,l,d,S5,23,l,0,2,1,2044,6,7,4,3,9,19,18,18,7.6226639513236,2.044,0.489236790606654,0.0526315789473685,0,0.0526315789473685
105,l,d,S5,24,l,0,3,1,2182,5,8,6,2,0,19,18,18,7.68799716639302,2.182,0.458295142071494,0.0526315789473685,0,0.0526315789473685
105,l,d,S5,25,l,0,5,1,1574,8,9,7,1,0,19,18,18,7.36137542897735,1.574,0.635324015247776,0.0526315789473685,0,0.0526315789473685
105,l,d,S5,26,d,1,0,1,2607,8,4,3,0,2,18,17,17,7.8659554139335,2.607,0.383582662063675,0.0555555555555556,0,0.0555555555555556
105,l,d,S5,27,l,0,2,1,1750,6,3,9,8,5,19,18,18,7.46737106691756,1.75,0.571428571428571,0.0526315789473685,0,0.0526315789473685
105,l,d,S5,28,d,1,9,1,1964,7,9,0,3,8,18,17,17,7.58273848891441,1.964,0.509164969450102,0.0555555555555556,0,0.0555555555555556
105,l,d,S5,29,l,0,1,1,1652,3,6,8,0,5,19,18,18,7.40974195408092,1.652,0.605326876513317,0.0526315789473685,0,0.0526315789473685
105,l,d,S5,30,l,0,9,1,2369,0,5,8,1,7,19,18,18,7.77022320415879,2.369,0.422119037568594,0.0526315789473685,0,0.0526315789473685
105,l,d,S5,31,d,1,0,1,2725,8,0,3,2,6,18,17,17,7.91022370709734,2.725,0.36697247706422,0.0555555555555556,0,0.0555555555555556
105,l,d,S5,32,l,0,8,1,2631,5,6,0,1,2,19,18,18,7.87511928104029,2.631,0.380083618396047,0.0526315789473685,0,0.0526315789473685
105,l,d,S5,33,l,0,3,1,2021,4,9,8,0,2,19,18,18,7.61134771740362,2.021,0.49480455220188,0.0526315789473685,0,0.0526315789473685
105,l,d,S5,34,l,0,8,1,2615,6,0,1,4,2,19,18,18,7.86901937649902,2.615,0.382409177820268,0.0526315789473685,0,0.0526315789473685
105,l,d,S5,35,d,1,6,1,2917,0,7,6,4,9,18,17,17,7.97831096986772,2.917,0.342817963661296,0.0555555555555556,0,0.0555555555555556
105,l,d,S5,36,l,0,9,1,1512,7,3,5,8,2,19,18,18,7.32118855673948,1.512,0.661375661375661,0.0526315789473685,0,0.0526315789473685
105,l,d,S5,37,d,1,4,1,2083,7,4,6,3,0,18,17,17,7.64156444126097,2.083,0.480076812289966,0.0555555555555556,0,0.0555555555555556
105,l,d,S5,38,l,0,7,1,2934,1,5,8,4,9,19,18,18,7.98412195870293,2.934,0.340831629175187,0.0526315789473685,0,0.0526315789473685
105,l,d,S5,39,l,0,6,1,1664,1,4,3,5,7,19,18,18,7.41697962138115,1.664,0.600961538461538,0.0526315789473685,0,0.0526315789473685
107,d,l,S3,1,d,0,9,1,590,6,4,5,NA,NA,20,20,20,6.38012253689976,0.59,1.69491525423729,0,0,0
107,d,l,S3,2,l,1,6,1,682,8,9,6,NA,NA,19,19,19,6.52502965784346,0.682,1.46627565982405,0,0,0
107,d,l,S3,3,l,1,3,1,754,9,3,6,NA,NA,19,19,19,6.62539236800796,0.754,1.3262599469496,0,0,0
107,d,l,S3,4,d,0,4,1,703,9,5,3,NA,NA,20,20,20,6.55535689181067,0.703,1.42247510668563,0,0,0
107,d,l,S3,5,d,0,5,1,618,9,6,7,NA,NA,20,20,20,6.42648845745769,0.618,1.61812297734628,0,0,0
107,d,l,S3,6,l,1,7,1,1064,2,9,7,NA,NA,19,19,19,6.96979066990159,1.064,0.93984962406015,0,0,0
107,d,l,S3,7,l,1,2,1,965,4,2,0,NA,NA,19,19,19,6.87212810133899,0.965,1.03626943005181,0,0,0
107,d,l,S3,8,d,0,5,1,730,8,2,4,NA,NA,20,20,20,6.59304453414244,0.73,1.36986301369863,0,0,0
107,d,l,S3,9,d,0,1,1,708,6,3,4,NA,NA,20,20,20,6.56244409369372,0.708,1.41242937853107,0,0,0
107,d,l,S3,10,d,0,0,1,556,9,2,3,NA,NA,20,20,20,6.32076829425058,0.556,1.79856115107914,0,0,0
107,d,l,S3,11,l,1,4,1,605,0,4,8,NA,NA,19,19,19,6.40522845803084,0.605,1.65289256198347,0,0,0
107,d,l,S3,12,d,0,0,1,524,8,7,3,NA,NA,20,20,20,6.26149168432104,0.524,1.90839694656489,0,0,0
107,d,l,S3,13,l,1,6,1,583,5,3,6,NA,NA,19,19,19,6.36818718635049,0.583,1.71526586620926,0,0,0
107,d,l,S3,14,l,1,3,1,719,3,7,1,NA,NA,19,19,19,6.57786135772105,0.719,1.39082058414465,0,0,0
107,d,l,S3,15,d,0,8,1,594,3,5,7,NA,NA,20,20,20,6.38687931936265,0.594,1.68350168350168,0,0,0
107,d,l,S3,16,d,0,3,1,618,8,9,0,NA,NA,20,20,20,6.42648845745769,0.618,1.61812297734628,0,0,0
107,d,l,S3,17,l,1,6,1,848,6,3,5,NA,NA,19,19,19,6.7428806357919,0.848,1.17924528301887,0,0,0
107,d,l,S3,18,l,1,2,1,762,5,2,9,NA,NA,19,19,19,6.63594655568665,0.762,1.31233595800525,0,0,0
107,d,l,S3,19,l,1,9,1,587,9,6,2,NA,NA,19,19,19,6.3750248198281,0.587,1.70357751277683,0,0,0
107,d,l,S3,20,d,0,1,1,591,2,5,7,NA,NA,20,20,20,6.3818160174061,0.591,1.69204737732657,0,0,0
107,d,l,S3,21,l,1,5,1,607,7,1,5,NA,NA,19,19,19,6.4085287910595,0.607,1.64744645799012,0,0,0
107,d,l,S3,22,l,1,8,1,582,8,9,3,NA,NA,19,19,19,6.36647044773144,0.582,1.71821305841924,0,0,0
107,d,l,S3,23,d,0,7,1,866,1,3,5,NA,NA,20,20,20,6.76388490856244,0.866,1.15473441108545,0,0,0
107,d,l,S3,25,l,1,6,1,577,0,6,7,NA,NA,19,19,19,6.3578422665081,0.577,1.73310225303293,0,0,0
107,d,l,S3,26,l,1,4,1,722,9,4,6,NA,NA,19,19,19,6.58202513889283,0.722,1.38504155124654,0,0,0
107,d,l,S3,27,d,0,7,1,1000,3,8,1,NA,NA,20,20,20,6.90775527898214,1,1,0,0,0
107,d,l,S3,28,d,0,1,1,584,9,7,4,NA,NA,20,20,20,6.36990098282823,0.584,1.71232876712329,0,0,0
107,d,l,S3,29,l,1,9,1,540,4,9,2,NA,NA,19,19,19,6.29156913955832,0.54,1.85185185185185,0,0,0
107,d,l,S3,30,d,0,2,1,670,8,5,0,NA,NA,20,20,20,6.50727771238501,0.67,1.49253731343284,0,0,0
107,d,l,S3,31,d,0,9,1,558,2,7,8,NA,NA,20,20,20,6.32435896238131,0.558,1.7921146953405,0,0,0
107,d,l,S3,32,d,0,0,1,1204,5,6,2,NA,NA,20,20,20,7.09340462586877,1.204,0.830564784053156,0,0,0
107,d,l,S3,33,l,1,7,1,715,9,4,7,NA,NA,19,19,19,6.57228254269401,0.715,1.3986013986014,0,0,0
107,d,l,S3,34,d,0,8,1,590,5,6,1,NA,NA,20,20,20,6.38012253689976,0.59,1.69491525423729,0,0,0
107,d,l,S3,35,d,0,4,1,810,1,7,0,NA,NA,20,20,20,6.69703424766648,0.81,1.23456790123457,0,0,0
107,d,l,S3,36,l,1,2,1,605,2,9,5,NA,NA,19,19,19,6.40522845803084,0.605,1.65289256198347,0,0,0
107,d,l,S3,37,l,1,1,1,744,1,2,8,NA,NA,19,19,19,6.61204103483309,0.744,1.34408602150538,0,0,0
107,d,l,S3,38,d,0,3,1,742,5,0,8,NA,NA,20,20,20,6.60934924316738,0.742,1.34770889487871,0,0,0
107,d,l,S3,39,l,1,5,1,788,5,2,3,NA,NA,19,19,19,6.66949808985788,0.788,1.26903553299492,0,0,0
107,d,l,S3,40,d,0,8,1,744,4,3,0,NA,NA,20,20,20,6.61204103483309,0.744,1.34408602150538,0,0,0
107,d,l,S5,1,l,1,1,1,679,5,1,9,0,8,20,20,20,6.5206211275587,0.679,1.47275405007364,0,0,0
107,d,l,S5,2,l,1,5,1,712,4,8,5,9,2,20,20,20,6.56807791141198,0.712,1.40449438202247,0,0,0
107,d,l,S5,3,l,1,2,1,603,2,7,5,1,4,20,20,20,6.40191719672719,0.603,1.65837479270315,0,0,0
107,d,l,S5,4,d,0,1,1,918,5,3,9,4,2,19,19,19,6.82219739062049,0.918,1.08932461873638,0,0,0
107,d,l,S5,5,l,1,0,1,729,4,0,8,6,3,20,20,20,6.59167373200866,0.729,1.37174211248285,0,0,0
107,d,l,S5,6,l,1,4,1,744,9,0,3,2,4,20,20,20,6.61204103483309,0.744,1.34408602150538,0,0,0
107,d,l,S5,7,l,1,6,1,806,5,7,4,8,6,20,20,20,6.69208374250663,0.806,1.24069478908189,0,0,0
107,d,l,S5,8,d,0,5,1,989,8,2,6,1,0,19,19,19,6.89669433162271,0.989,1.01112234580384,0,0,0
107,d,l,S5,9,l,1,2,1,681,4,1,7,2,9,20,20,20,6.52356230614951,0.681,1.46842878120411,0,0,0
107,d,l,S5,10,l,1,7,1,705,6,7,4,3,9,20,20,20,6.55819780281227,0.705,1.41843971631206,0,0,0
107,d,l,S5,11,l,1,8,1,1816,8,7,0,2,3,20,20,20,7.50439155916124,1.816,0.550660792951542,0,0,0
107,d,l,S5,12,d,0,1,1,827,7,8,5,0,4,19,19,19,6.71780469502369,0.827,1.20918984280532,0,0,0
107,d,l,S5,13,l,1,3,1,562,1,8,0,3,6,20,20,20,6.33150184989369,0.562,1.77935943060498,0,0,0
107,d,l,S5,14,l,1,9,1,1067,0,3,9,6,1,20,20,20,6.97260625130175,1.067,0.937207122774133,0,0,0
107,d,l,S5,15,l,1,3,1,600,0,7,8,3,1,20,20,20,6.39692965521615,0.6,1.66666666666667,0,0,0
107,d,l,S5,16,d,0,4,1,915,7,5,8,6,1,19,19,19,6.81892406527552,0.915,1.09289617486339,0,0,0
107,d,l,S5,17,l,1,8,1,858,4,8,3,9,5,20,20,20,6.75460409948796,0.858,1.16550116550117,0,0,0
107,d,l,S5,18,l,1,4,1,919,8,6,7,0,4,20,20,20,6.82328612235569,0.919,1.08813928182807,0,0,0
107,d,l,S5,19,d,0,7,1,1206,0,6,5,3,4,19,19,19,7.09506437728713,1.206,0.829187396351575,0,0,0
107,d,l,S5,20,d,0,6,1,1441,3,2,5,8,7,19,19,19,7.27309259599952,1.441,0.693962526023595,0,0,0
107,d,l,S5,21,d,0,5,1,791,8,2,0,1,4,19,19,19,6.67329796776765,0.791,1.26422250316056,0,0,0
107,d,l,S5,22,l,1,0,1,867,5,6,0,9,2,20,20,20,6.76503897678054,0.867,1.15340253748558,0,0,0
107,d,l,S5,23,d,0,2,1,776,6,7,4,3,9,19,19,19,6.65415252018322,0.776,1.28865979381443,0,0,0
107,d,l,S5,24,d,0,3,1,756,5,8,6,2,0,19,19,19,6.62804137617953,0.756,1.32275132275132,0,0,0
107,d,l,S5,25,d,0,5,1,1054,8,9,7,1,0,19,19,19,6.96034772910131,1.054,0.94876660341556,0,0,0
107,d,l,S5,26,l,1,0,1,947,8,4,3,0,2,20,20,20,6.85329909318608,0.947,1.05596620908131,0,0,0
107,d,l,S5,27,d,0,2,1,917,6,3,9,8,5,19,19,19,6.82110747225646,0.917,1.09051254089422,0,0,0
107,d,l,S5,28,l,1,9,1,1640,7,9,0,3,8,20,20,20,7.40245152081824,1.64,0.609756097560976,0,0,0
107,d,l,S5,29,d,0,1,1,806,3,6,8,0,5,19,19,19,6.69208374250663,0.806,1.24069478908189,0,0,0
107,d,l,S5,30,d,0,9,1,625,0,5,8,1,7,19,19,19,6.4377516497364,0.625,1.6,0,0,0
107,d,l,S5,31,l,1,0,1,916,8,0,3,2,6,20,20,20,6.82001636467413,0.916,1.09170305676856,0,0,0
107,d,l,S5,32,d,0,8,1,782,5,6,0,1,2,19,19,19,6.66185474054531,0.782,1.27877237851662,0,0,0
107,d,l,S5,33,d,0,3,1,682,4,9,8,0,2,19,19,19,6.52502965784346,0.682,1.46627565982405,0,0,0
107,d,l,S5,34,d,0,8,1,1462,6,0,1,4,2,19,19,19,7.28756064030972,1.462,0.683994528043776,0,0,0
107,d,l,S5,35,l,1,6,1,888,0,7,6,4,9,20,20,20,6.78897174299217,0.888,1.12612612612613,0,0,0
107,d,l,S5,36,d,0,9,1,728,7,3,5,8,2,19,19,19,6.59030104819669,0.728,1.37362637362637,0,0,0
107,d,l,S5,37,l,1,4,1,674,7,4,6,3,0,20,20,20,6.51323011091231,0.674,1.48367952522255,0,0,0
107,d,l,S5,39,d,0,6,1,1006,1,4,3,5,7,19,19,19,6.91373735065968,1.006,0.99403578528827,0,0,0
107,d,l,S5,40,d,0,7,1,1006,6,1,8,9,5,19,19,19,6.91373735065968,1.006,0.99403578528827,0,0,0
11,d,l,S3,1,d,0,9,1,655,6,4,5,NA,NA,20,20,20,6.48463523563525,0.655,1.52671755725191,0,0,0
11,d,l,S3,2,l,1,6,1,1201,8,9,6,NA,NA,20,20,20,7.09090982207998,1.201,0.832639467110741,0,0,0
11,d,l,S3,3,l,1,3,1,800,9,3,6,NA,NA,20,20,20,6.68461172766793,0.8,1.25,0,0,0
11,d,l,S3,4,d,0,4,1,755,9,5,3,NA,NA,20,20,20,6.62671774924902,0.755,1.32450331125828,0,0,0
11,d,l,S3,5,d,0,5,1,661,9,6,7,NA,NA,20,20,20,6.49375383985169,0.661,1.51285930408472,0,0,0
11,d,l,S3,6,l,1,7,1,718,2,9,7,NA,NA,20,20,20,6.57646956904822,0.718,1.39275766016713,0,0,0
11,d,l,S3,7,l,1,2,1,817,4,2,0,NA,NA,20,20,20,6.70563909486,0.817,1.22399020807834,0,0,0
11,d,l,S3,8,d,0,5,1,751,8,2,4,NA,NA,20,20,20,6.62140565176413,0.751,1.33155792276964,0,0,0
11,d,l,S3,9,d,0,1,1,709,6,3,4,NA,NA,20,20,20,6.56385552653213,0.709,1.41043723554302,0,0,0
11,d,l,S3,10,d,0,0,1,684,9,2,3,NA,NA,20,20,20,6.52795791762255,0.684,1.46198830409357,0,0,0
11,d,l,S3,11,l,1,4,1,912,0,4,8,NA,NA,20,20,20,6.81563999007433,0.912,1.09649122807018,0,0,0
11,d,l,S3,12,d,0,0,1,935,8,7,3,NA,NA,20,20,20,6.84054652928869,0.935,1.06951871657754,0,0,0
11,d,l,S3,13,l,1,6,1,649,5,3,6,NA,NA,20,20,20,6.47543271670409,0.649,1.54083204930663,0,0,0
11,d,l,S3,14,l,1,3,1,699,3,7,1,NA,NA,20,20,20,6.54965074223381,0.699,1.43061516452074,0,0,0
11,d,l,S3,15,d,0,8,1,530,3,5,7,NA,NA,20,20,20,6.27287700654617,0.53,1.88679245283019,0,0,0
11,d,l,S3,16,d,0,3,1,1217,8,9,0,NA,NA,20,20,20,7.10414409298753,1.217,0.821692686935086,0,0,0
11,d,l,S3,17,l,1,6,1,615,6,3,5,NA,NA,20,20,20,6.42162226780652,0.615,1.6260162601626,0,0,0
11,d,l,S3,18,l,1,2,1,806,5,2,9,NA,NA,20,20,20,6.69208374250663,0.806,1.24069478908189,0,0,0
11,d,l,S3,19,l,1,9,1,673,9,6,2,NA,NA,20,20,20,6.51174532964473,0.673,1.48588410104012,0,0,0
11,d,l,S3,20,d,0,1,1,718,2,5,7,NA,NA,20,20,20,6.57646956904822,0.718,1.39275766016713,0,0,0
11,d,l,S3,21,l,1,5,1,1025,7,1,5,NA,NA,20,20,20,6.93244789157251,1.025,0.975609756097561,0,0,0
11,d,l,S3,22,l,1,8,1,715,8,9,3,NA,NA,20,20,20,6.57228254269401,0.715,1.3986013986014,0,0,0
11,d,l,S3,23,d,0,7,1,754,1,3,5,NA,NA,20,20,20,6.62539236800796,0.754,1.3262599469496,0,0,0
11,d,l,S3,24,l,1,0,1,815,6,0,5,NA,NA,20,20,20,6.70318811324086,0.815,1.22699386503067,0,0,0
11,d,l,S3,25,l,1,6,1,746,0,6,7,NA,NA,20,20,20,6.61472560020376,0.746,1.34048257372654,0,0,0
11,d,l,S3,26,l,1,4,1,744,9,4,6,NA,NA,20,20,20,6.61204103483309,0.744,1.34408602150538,0,0,0
11,d,l,S3,27,d,0,7,1,934,3,8,1,NA,NA,20,20,20,6.83947643822884,0.934,1.07066381156317,0,0,0
11,d,l,S3,28,d,0,1,1,1452,9,7,4,NA,NA,20,20,20,7.28069719538474,1.452,0.68870523415978,0,0,0
11,d,l,S3,29,l,1,9,1,697,4,9,2,NA,NA,20,20,20,6.54678541076052,0.697,1.43472022955524,0,0,0
11,d,l,S3,30,d,0,2,1,653,8,5,0,NA,NA,20,20,20,6.48157712927643,0.653,1.53139356814701,0,0,0
11,d,l,S3,31,d,0,9,1,799,2,7,8,NA,NA,20,20,20,6.68336094576627,0.799,1.25156445556946,0,0,0
11,d,l,S3,32,d,0,0,1,762,5,6,2,NA,NA,20,20,20,6.63594655568665,0.762,1.31233595800525,0,0,0
11,d,l,S3,33,l,1,7,1,851,9,4,7,NA,NA,20,20,20,6.74641212857337,0.851,1.17508813160987,0,0,0
11,d,l,S3,34,d,0,8,1,565,5,6,1,NA,NA,20,20,20,6.33682573114644,0.565,1.76991150442478,0,0,0
11,d,l,S3,35,d,0,4,1,577,1,7,0,NA,NA,20,20,20,6.3578422665081,0.577,1.73310225303293,0,0,0
11,d,l,S3,36,l,1,2,1,714,2,9,5,NA,NA,20,20,20,6.57088296233958,0.714,1.40056022408964,0,0,0
11,d,l,S3,37,l,1,1,1,881,1,2,8,NA,NA,20,20,20,6.78105762593618,0.881,1.13507377979569,0,0,0
11,d,l,S3,38,d,0,3,1,761,5,0,8,NA,NA,20,20,20,6.63463335786169,0.761,1.31406044678055,0,0,0
11,d,l,S3,39,l,1,5,1,671,5,2,3,NA,NA,20,20,20,6.50876913697168,0.671,1.4903129657228,0,0,0
11,d,l,S3,40,d,0,8,1,675,4,3,0,NA,NA,20,20,20,6.51471269087253,0.675,1.48148148148148,0,0,0
11,d,l,S5,1,l,1,1,1,1027,5,1,9,0,8,19,19,19,6.93439720992856,1.027,0.973709834469328,0,0,0
11,d,l,S5,2,l,1,5,1,1358,4,8,5,9,2,19,19,19,7.21376830811864,1.358,0.736377025036819,0,0,0
11,d,l,S5,3,l,1,2,1,1087,2,7,5,1,4,19,19,19,6.99117688712121,1.087,0.919963201471941,0,0,0
11,d,l,S5,4,d,0,1,1,787,5,3,9,4,2,20,20,20,6.6682282484174,0.787,1.27064803049555,0,0,0
11,d,l,S5,5,l,1,0,1,1243,4,0,8,6,3,19,19,19,7.12528309151071,1.243,0.80450522928399,0,0,0
11,d,l,S5,6,l,1,4,1,1081,9,0,3,2,4,19,19,19,6.98564181763921,1.081,0.925069380203515,0,0,0
11,d,l,S5,7,l,1,6,1,921,5,7,4,8,6,19,19,19,6.82546003625531,0.921,1.085776330076,0,0,0
11,d,l,S5,8,d,0,5,1,756,8,2,6,1,0,20,20,20,6.62804137617953,0.756,1.32275132275132,0,0,0
11,d,l,S5,9,l,1,2,1,1409,4,1,7,2,9,19,19,19,7.25063551189868,1.409,0.7097232079489,0,0,0
11,d,l,S5,10,l,1,7,1,1009,6,7,4,3,9,19,19,19,6.91671502035361,1.009,0.991080277502478,0,0,0
11,d,l,S5,11,l,1,8,1,836,8,7,0,2,3,19,19,19,6.7286286130847,0.836,1.19617224880383,0,0,0
11,d,l,S5,12,d,0,1,1,1714,7,8,5,0,4,20,20,20,7.44658509915773,1.714,0.58343057176196,0,0,0
11,d,l,S5,13,l,1,3,1,821,1,8,0,3,6,19,19,19,6.71052310945243,0.821,1.21802679658953,0,0,0
11,d,l,S5,14,l,1,9,1,888,0,3,9,6,1,19,19,19,6.78897174299217,0.888,1.12612612612613,0,0,0
11,d,l,S5,15,l,1,3,1,1076,0,7,8,3,1,19,19,19,6.98100574072173,1.076,0.929368029739777,0,0,0
11,d,l,S5,16,d,0,4,1,1517,7,5,8,6,1,20,20,20,7.32448997934853,1.517,0.659195781147001,0,0,0
11,d,l,S5,18,l,1,4,1,837,8,6,7,0,4,19,19,19,6.72982407048948,0.837,1.194743130227,0,0,0
11,d,l,S5,19,d,0,7,1,619,0,6,5,3,4,20,20,20,6.4281052726846,0.619,1.61550888529887,0,0,0
11,d,l,S5,20,d,0,6,1,922,3,2,5,8,7,20,20,20,6.82654522355659,0.922,1.08459869848156,0,0,0
11,d,l,S5,21,d,0,5,1,665,8,2,0,1,4,20,20,20,6.49978704065585,0.665,1.50375939849624,0,0,0
11,d,l,S5,22,l,1,0,1,921,5,6,0,9,2,19,19,19,6.82546003625531,0.921,1.085776330076,0,0,0
11,d,l,S5,23,d,0,2,1,588,6,7,4,3,9,20,20,20,6.37672694789863,0.588,1.70068027210884,0,0,0
11,d,l,S5,24,d,0,3,1,1316,5,8,6,2,0,20,20,20,7.18235211188526,1.316,0.759878419452887,0,0,0
11,d,l,S5,25,d,0,5,1,819,8,9,7,1,0,20,20,20,6.70808408385307,0.819,1.22100122100122,0,0,0
11,d,l,S5,26,l,1,0,1,1037,8,4,3,0,2,19,19,19,6.94408720822953,1.037,0.964320154291225,0,0,0
11,d,l,S5,27,d,0,2,1,763,6,3,9,8,5,20,20,20,6.63725803128446,0.763,1.31061598951507,0,0,0
11,d,l,S5,28,l,1,9,1,1381,7,9,0,3,8,19,19,19,7.23056315340929,1.381,0.724112961622013,0,0,0
11,d,l,S5,29,d,0,1,1,501,3,6,8,0,5,20,20,20,6.21660610108486,0.501,1.99600798403194,0,0,0
11,d,l,S5,30,d,0,9,1,713,0,5,8,1,7,20,20,20,6.5694814204143,0.713,1.40252454417952,0,0,0
11,d,l,S5,31,l,1,0,1,800,8,0,3,2,6,19,19,19,6.68461172766793,0.8,1.25,0,0,0
11,d,l,S5,32,d,0,8,1,731,5,6,0,1,2,20,20,20,6.59441345974978,0.731,1.36798905608755,0,0,0
11,d,l,S5,33,d,0,3,1,941,4,9,8,0,2,20,20,20,6.84694313958538,0.941,1.06269925611052,0,0,0
11,d,l,S5,34,d,0,8,1,695,6,0,1,4,2,20,20,20,6.54391184556479,0.695,1.43884892086331,0,0,0
11,d,l,S5,35,l,1,6,1,807,0,7,6,4,9,19,19,19,6.69332366826995,0.807,1.23915737298637,0,0,0
11,d,l,S5,36,d,0,9,1,751,7,3,5,8,2,20,20,20,6.62140565176413,0.751,1.33155792276964,0,0,0
11,d,l,S5,37,l,1,4,1,744,7,4,6,3,0,19,19,19,6.61204103483309,0.744,1.34408602150538,0,0,0
11,d,l,S5,38,d,0,7,1,734,1,5,8,4,9,20,20,20,6.59850902861452,0.734,1.36239782016349,0,0,0
11,d,l,S5,39,d,0,6,1,788,1,4,3,5,7,20,20,20,6.66949808985788,0.788,1.26903553299492,0,0,0
11,d,l,S5,40,d,0,7,1,660,6,1,8,9,5,20,20,20,6.49223983502047,0.66,1.51515151515152,0,0,0
12,d,l,S3,1,d,0,8,1,616,4,7,6,NA,NA,20,20,20,6.42324696353352,0.616,1.62337662337662,0,0,0
12,d,l,S3,2,d,0,5,1,738,8,2,6,NA,NA,20,20,20,6.60394382460047,0.738,1.3550135501355,0,0,0
12,d,l,S3,3,l,1,8,1,936,8,1,0,NA,NA,20,20,20,6.84161547647759,0.936,1.06837606837607,0,0,0
12,d,l,S3,4,l,1,4,1,841,8,4,7,NA,NA,20,20,20,6.73459165997295,0.841,1.18906064209275,0,0,0
12,d,l,S3,5,d,0,6,1,831,4,1,2,NA,NA,20,20,20,6.72262979485545,0.831,1.20336943441637,0,0,0
12,d,l,S3,6,d,0,2,1,774,4,3,0,NA,NA,20,20,20,6.65157187358973,0.774,1.29198966408269,0,0,0
12,d,l,S3,7,d,0,1,1,926,0,4,3,NA,NA,20,20,20,6.83087423464618,0.926,1.07991360691145,0,0,0
12,d,l,S3,8,l,1,0,1,1113,1,0,5,NA,NA,20,20,20,7.01481435127554,1.113,0.898472596585804,0,0,0
12,d,l,S3,9,d,0,7,1,644,9,6,1,NA,NA,20,20,20,6.46769872610435,0.644,1.5527950310559,0,0,0
12,d,l,S3,10,d,0,9,1,658,0,7,1,NA,NA,20,20,20,6.48920493132532,0.658,1.51975683890577,0,0,0
12,d,l,S3,11,l,1,7,1,899,3,5,7,NA,NA,20,20,20,6.80128303447162,0.899,1.11234705228031,0,0,0
12,d,l,S3,12,l,1,1,1,556,0,1,5,NA,NA,20,20,20,6.32076829425058,0.556,1.79856115107914,0,0,0
12,d,l,S3,13,l,1,5,1,720,5,6,3,NA,NA,20,20,20,6.5792512120101,0.72,1.38888888888889,0,0,0
12,d,l,S3,14,d,0,3,1,823,2,8,1,NA,NA,20,20,20,6.71295620067707,0.823,1.21506682867558,0,0,0
12,d,l,S3,15,l,1,6,1,465,6,3,0,NA,NA,20,20,20,6.14203740558736,0.465,2.1505376344086,0,0,0
12,d,l,S3,16,l,1,4,1,639,4,9,6,NA,NA,20,20,20,6.45990445437753,0.639,1.56494522691706,0,0,0
12,d,l,S3,17,l,1,9,1,721,4,1,9,NA,NA,20,20,20,6.58063913728495,0.721,1.3869625520111,0,0,0
12,d,l,S3,18,d,0,6,1,628,0,2,1,NA,NA,20,20,20,6.4425401664682,0.628,1.59235668789809,0,0,0
12,d,l,S3,19,d,0,8,1,669,7,5,6,NA,NA,20,20,20,6.50578406012823,0.669,1.49476831091181,0,0,0
12,d,l,S3,20,l,1,9,1,559,8,1,9,NA,NA,20,20,20,6.3261494731551,0.559,1.78890876565295,0,0,0
12,d,l,S3,21,l,1,8,1,519,1,8,5,NA,NA,20,20,20,6.25190388316589,0.519,1.92678227360308,0,0,0
12,d,l,S3,22,d,0,1,1,571,9,6,4,NA,NA,20,20,20,6.34738920965601,0.571,1.75131348511384,0,0,0
12,d,l,S3,23,l,1,4,1,667,4,6,8,NA,NA,20,20,20,6.50279004591562,0.667,1.49925037481259,0,0,0
12,d,l,S3,24,l,1,0,1,696,4,5,0,NA,NA,20,20,20,6.54534966033442,0.696,1.4367816091954,0,0,0
12,d,l,S3,25,d,0,3,1,704,7,5,1,NA,NA,20,20,20,6.55677835615804,0.704,1.42045454545455,0,0,0
12,d,l,S3,26,l,1,5,1,659,5,6,4,NA,NA,20,20,20,6.49072353450251,0.659,1.51745068285281,0,0,0
12,d,l,S3,27,d,0,2,1,625,5,8,3,NA,NA,20,20,20,6.4377516497364,0.625,1.6,0,0,0
12,d,l,S3,28,d,0,0,1,835,6,8,9,NA,NA,20,20,20,6.72743172485086,0.835,1.19760479041916,0,0,0
12,d,l,S3,29,l,1,6,1,589,4,5,6,NA,NA,20,20,20,6.37842618365159,0.589,1.69779286926995,0,0,0
12,d,l,S3,30,l,1,4,1,586,9,5,4,NA,NA,20,20,20,6.37331978957701,0.586,1.70648464163823,0,0,0
12,d,l,S3,31,d,0,1,1,673,6,2,4,NA,NA,20,20,20,6.51174532964473,0.673,1.48588410104012,0,0,0
12,d,l,S3,32,l,1,9,1,718,1,6,9,NA,NA,20,20,20,6.57646956904822,0.718,1.39275766016713,0,0,0
12,d,l,S3,33,d,0,3,1,581,6,5,7,NA,NA,20,20,20,6.36475075685191,0.581,1.72117039586919,0,0,0
12,d,l,S3,34,l,1,2,1,594,2,8,4,NA,NA,20,20,20,6.38687931936265,0.594,1.68350168350168,0,0,0
12,d,l,S3,35,d,0,7,1,1174,5,2,9,NA,NA,20,20,20,7.06817200038804,1.174,0.851788756388416,0,0,0
12,d,l,S3,36,d,0,2,1,842,3,4,6,NA,NA,20,20,20,6.73578001424233,0.842,1.18764845605701,0,0,0
12,d,l,S3,37,l,1,0,1,616,7,9,0,NA,NA,20,20,20,6.42324696353352,0.616,1.62337662337662,0,0,0
12,d,l,S3,38,d,0,3,1,623,6,9,8,NA,NA,20,20,20,6.43454651878745,0.623,1.60513643659711,0,0,0
12,d,l,S3,39,d,0,5,1,638,0,7,2,NA,NA,20,20,20,6.45833828334479,0.638,1.56739811912226,0,0,0
12,d,l,S3,40,l,1,7,1,560,7,4,3,NA,NA,20,20,20,6.32793678372919,0.56,1.78571428571429,0,0,0
12,d,l,S5,1,l,1,1,1,656,8,2,6,1,4,20,20,20,6.48616078894409,0.656,1.52439024390244,0,0,0
12,d,l,S5,2,d,0,3,1,689,8,7,2,0,5,19,19,19,6.53524127101366,0.689,1.45137880986938,0,0,0
12,d,l,S5,3,l,1,6,1,1081,3,6,1,7,0,20,20,20,6.98564181763921,1.081,0.925069380203515,0,0,0
12,d,l,S5,4,d,0,8,1,642,1,6,7,0,4,19,19,19,6.46458830368996,0.642,1.55763239875389,0,0,0
12,d,l,S5,5,d,0,5,1,624,4,2,6,9,0,19,19,19,6.43615036836943,0.624,1.6025641025641,0,0,0
12,d,l,S5,6,l,1,7,1,1206,3,7,0,6,9,20,20,20,7.09506437728713,1.206,0.829187396351575,0,0,0
12,d,l,S5,7,d,0,2,1,666,0,1,6,5,7,19,19,19,6.50128967054039,0.666,1.5015015015015,0,0,0
12,d,l,S5,9,l,1,0,1,1658,5,8,0,4,6,20,20,20,7.41336733569524,1.658,0.60313630880579,0,0,0
12,d,l,S5,10,l,1,9,1,615,4,9,3,1,5,20,20,20,6.42162226780652,0.615,1.6260162601626,0,0,0
12,d,l,S5,11,l,1,6,1,806,4,6,0,2,3,20,20,20,6.69208374250663,0.806,1.24069478908189,0,0,0
12,d,l,S5,12,d,0,0,1,1053,7,3,9,5,6,19,19,19,6.95939851213398,1.053,0.949667616334283,0,0,0
12,d,l,S5,13,l,1,6,1,606,0,1,9,5,6,20,20,20,6.40687998606931,0.606,1.65016501650165,0,0,0
12,d,l,S5,14,d,0,9,1,746,7,5,3,1,8,19,19,19,6.61472560020376,0.746,1.34048257372654,0,0,0
12,d,l,S5,15,d,0,8,1,747,5,7,6,2,9,19,19,19,6.61606518513282,0.747,1.33868808567604,0,0,0
12,d,l,S5,16,d,0,2,1,837,4,7,8,3,9,19,19,19,6.72982407048948,0.837,1.194743130227,0,0,0
12,d,l,S5,17,l,1,5,1,815,4,5,6,1,3,20,20,20,6.70318811324086,0.815,1.22699386503067,0,0,0
12,d,l,S5,18,d,0,4,1,789,9,3,5,7,1,19,19,19,6.67076632084587,0.789,1.26742712294043,0,0,0
12,d,l,S5,19,d,0,3,1,721,1,5,9,2,8,19,19,19,6.58063913728495,0.721,1.3869625520111,0,0,0
12,d,l,S5,20,l,1,1,1,1351,6,3,1,9,7,20,20,20,7.2086003379602,1.351,0.74019245003701,0,0,0
12,d,l,S5,21,d,0,7,1,828,1,5,0,8,9,19,19,19,6.71901315438526,0.828,1.20772946859903,0,0,0
12,d,l,S5,22,d,0,3,1,851,5,4,0,6,9,19,19,19,6.74641212857337,0.851,1.17508813160987,0,0,0
12,d,l,S5,23,l,1,8,1,968,1,0,8,2,5,20,20,20,6.87523208727658,0.968,1.03305785123967,0,0,0
12,d,l,S5,24,l,1,0,1,789,4,1,3,2,0,20,20,20,6.67076632084587,0.789,1.26742712294043,0,0,0
12,d,l,S5,25,l,1,8,1,1021,8,1,7,4,9,20,20,20,6.92853781816467,1.021,0.979431929480901,0,0,0
12,d,l,S5,26,d,0,4,1,583,5,7,0,6,9,19,19,19,6.36818718635049,0.583,1.71526586620926,0,0,0
12,d,l,S5,27,l,1,6,1,707,5,0,6,7,4,20,20,20,6.56103066589657,0.707,1.41442715700141,0,0,0
12,d,l,S5,28,l,1,3,1,586,6,8,4,9,3,20,20,20,6.37331978957701,0.586,1.70648464163823,0,0,0
12,d,l,S5,29,l,1,9,1,886,5,9,7,8,6,20,20,20,6.78671695060508,0.886,1.12866817155756,0,0,0
12,d,l,S5,30,d,0,4,1,646,8,7,0,6,5,19,19,19,6.4707995037826,0.646,1.54798761609907,0,0,0
12,d,l,S5,31,d,0,1,1,836,3,2,4,5,9,19,19,19,6.7286286130847,0.836,1.19617224880383,0,0,0
12,d,l,S5,32,l,1,0,1,702,9,8,0,2,3,20,20,20,6.55393340402581,0.702,1.42450142450142,0,0,0
12,d,l,S5,33,d,0,1,1,585,5,0,7,3,2,19,19,19,6.37161184723186,0.585,1.70940170940171,0,0,0
12,d,l,S5,34,d,0,5,1,1201,7,1,9,6,3,19,19,19,7.09090982207998,1.201,0.832639467110741,0,0,0
12,d,l,S5,35,l,1,7,1,884,1,9,7,2,6,20,20,20,6.78445706263764,0.884,1.13122171945701,0,0,0
12,d,l,S5,36,l,1,5,1,1248,9,5,0,7,8,20,20,20,7.12929754892937,1.248,0.801282051282051,0,0,0
12,d,l,S5,37,d,0,7,1,689,6,4,1,8,0,19,19,19,6.53524127101366,0.689,1.45137880986938,0,0,0
12,d,l,S5,38,l,1,2,1,1609,2,5,1,8,7,20,20,20,7.38336814699238,1.609,0.621504039776259,0,0,0
12,d,l,S5,39,l,1,4,1,581,8,3,9,1,4,20,20,20,6.36475075685191,0.581,1.72117039586919,0,0,0
12,d,l,S5,40,d,0,2,1,637,3,9,7,4,6,19,19,19,6.45676965557216,0.637,1.56985871271586,0,0,0
13,l,d,S3,1,l,0,9,1,1493,6,4,5,NA,NA,20,20,20,7.30854279753919,1.493,0.669792364367046,0,0,0
13,l,d,S3,2,d,1,6,1,641,8,9,6,NA,NA,19,19,19,6.46302945692067,0.641,1.5600624024961,0,0,0
13,l,d,S3,3,d,1,3,1,771,9,3,6,NA,NA,19,19,19,6.64768837356333,0.771,1.2970168612192,0,0,0
13,l,d,S3,4,l,0,4,1,780,9,5,3,NA,NA,20,20,20,6.65929391968364,0.78,1.28205128205128,0,0,0
13,l,d,S3,5,l,0,5,1,1500,9,6,7,NA,NA,20,20,20,7.3132203870903,1.5,0.666666666666667,0,0,0
13,l,d,S3,6,d,1,7,1,1008,2,9,7,NA,NA,19,19,19,6.91572344863131,1.008,0.992063492063492,0,0,0
13,l,d,S3,7,d,1,2,1,1219,4,2,0,NA,NA,19,19,19,7.10578612948127,1.219,0.820344544708778,0,0,0
13,l,d,S3,8,l,0,5,1,666,8,2,4,NA,NA,20,20,20,6.50128967054039,0.666,1.5015015015015,0,0,0
13,l,d,S3,9,l,0,1,1,914,6,3,4,NA,NA,20,20,20,6.81783057145415,0.914,1.09409190371991,0,0,0
13,l,d,S3,10,l,0,0,1,1310,9,2,3,NA,NA,20,20,20,7.1777824161952,1.31,0.763358778625954,0,0,0
13,l,d,S3,11,d,1,4,1,1113,0,4,8,NA,NA,19,19,19,7.01481435127554,1.113,0.898472596585804,0,0,0
13,l,d,S3,12,l,0,0,1,864,8,7,3,NA,NA,20,20,20,6.76157276880406,0.864,1.15740740740741,0,0,0
13,l,d,S3,13,d,1,6,1,1130,5,3,6,NA,NA,19,19,19,7.02997291170639,1.13,0.884955752212389,0,0,0
13,l,d,S3,14,d,1,3,1,1220,3,7,1,NA,NA,19,19,19,7.1066061377273,1.22,0.819672131147541,0,0,0
13,l,d,S3,15,l,0,8,1,823,3,5,7,NA,NA,20,20,20,6.71295620067707,0.823,1.21506682867558,0,0,0
13,l,d,S3,16,l,0,3,1,782,8,9,0,NA,NA,20,20,20,6.66185474054531,0.782,1.27877237851662,0,0,0
13,l,d,S3,17,d,1,6,1,1038,6,3,5,NA,NA,19,19,19,6.94505106372583,1.038,0.963391136801541,0,0,0
13,l,d,S3,18,d,1,2,1,1072,5,2,9,NA,NA,19,19,19,6.97728134163075,1.072,0.932835820895522,0,0,0
13,l,d,S3,19,d,1,9,1,936,9,6,2,NA,NA,19,19,19,6.84161547647759,0.936,1.06837606837607,0,0,0
13,l,d,S3,20,l,0,1,1,750,2,5,7,NA,NA,20,20,20,6.62007320653036,0.75,1.33333333333333,0,0,0
13,l,d,S3,21,d,1,5,1,928,7,1,5,NA,NA,19,19,19,6.8330317327862,0.928,1.07758620689655,0,0,0
13,l,d,S3,23,l,0,7,1,581,1,3,5,NA,NA,20,20,20,6.36475075685191,0.581,1.72117039586919,0,0,0
13,l,d,S3,24,d,1,0,1,950,6,0,5,NA,NA,19,19,19,6.85646198459459,0.95,1.05263157894737,0,0,0
13,l,d,S3,25,d,1,6,1,947,0,6,7,NA,NA,19,19,19,6.85329909318608,0.947,1.05596620908131,0,0,0
13,l,d,S3,26,d,1,4,1,724,9,4,6,NA,NA,19,19,19,6.58479139238572,0.724,1.38121546961326,0,0,0
13,l,d,S3,27,l,0,7,1,735,3,8,1,NA,NA,20,20,20,6.59987049921284,0.735,1.36054421768707,0,0,0
13,l,d,S3,28,l,0,1,1,849,9,7,4,NA,NA,20,20,20,6.74405918631135,0.849,1.17785630153121,0,0,0
13,l,d,S3,29,d,1,9,1,850,4,9,2,NA,NA,19,19,19,6.74523634948436,0.85,1.17647058823529,0,0,0
13,l,d,S3,30,l,0,2,1,772,8,5,0,NA,NA,20,20,20,6.64898455002478,0.772,1.29533678756477,0,0,0
13,l,d,S3,31,l,0,9,1,1140,2,7,8,NA,NA,20,20,20,7.03878354138854,1.14,0.87719298245614,0,0,0
13,l,d,S3,32,l,0,0,1,774,5,6,2,NA,NA,20,20,20,6.65157187358973,0.774,1.29198966408269,0,0,0
13,l,d,S3,33,d,1,7,1,1019,9,4,7,NA,NA,19,19,19,6.92657703322272,1.019,0.98135426889107,0,0,0
13,l,d,S3,34,l,0,8,1,866,5,6,1,NA,NA,20,20,20,6.76388490856244,0.866,1.15473441108545,0,0,0
13,l,d,S3,35,l,0,4,1,738,1,7,0,NA,NA,20,20,20,6.60394382460047,0.738,1.3550135501355,0,0,0
13,l,d,S3,36,d,1,2,1,880,2,9,5,NA,NA,19,19,19,6.77992190747225,0.88,1.13636363636364,0,0,0
13,l,d,S3,37,d,1,1,1,769,1,2,8,NA,NA,19,19,19,6.64509096950564,0.769,1.30039011703511,0,0,0
13,l,d,S3,38,l,0,3,1,682,5,0,8,NA,NA,20,20,20,6.52502965784346,0.682,1.46627565982405,0,0,0
13,l,d,S3,39,d,1,5,1,917,5,2,3,NA,NA,19,19,19,6.82110747225646,0.917,1.09051254089422,0,0,0
13,l,d,S3,40,l,0,8,1,628,4,3,0,NA,NA,20,20,20,6.4425401664682,0.628,1.59235668789809,0,0,0
13,l,d,S5,1,d,1,1,1,1083,5,1,9,0,8,20,20,20,6.98749024700099,1.083,0.923361034164358,0,0,0
13,l,d,S5,2,d,1,5,1,1211,4,8,5,9,2,20,20,20,7.09920174355309,1.211,0.825763831544178,0,0,0
13,l,d,S5,3,d,1,2,1,1018,2,7,5,1,4,20,20,20,6.92559519711047,1.018,0.982318271119843,0,0,0
13,l,d,S5,4,l,0,1,1,1837,5,3,9,4,2,19,19,19,7.51588908521513,1.837,0.544365813826892,0,0,0
13,l,d,S5,5,d,1,0,1,1103,4,0,8,6,3,20,20,20,7.0057890192535,1.103,0.906618313689937,0,0,0
13,l,d,S5,6,d,1,4,1,1062,9,0,3,2,4,20,20,20,6.96790920180188,1.062,0.941619585687382,0,0,0
13,l,d,S5,7,d,1,6,1,1055,5,7,4,8,6,20,20,20,6.96129604591017,1.055,0.947867298578199,0,0,0
13,l,d,S5,8,l,0,5,1,2360,8,2,6,1,0,19,19,19,7.76641689801966,2.36,0.423728813559322,0,0,0
13,l,d,S5,9,d,1,2,1,1021,4,1,7,2,9,20,20,20,6.92853781816467,1.021,0.979431929480901,0,0,0
13,l,d,S5,10,d,1,7,1,1219,6,7,4,3,9,20,20,20,7.10578612948127,1.219,0.820344544708778,0,0,0
13,l,d,S5,11,d,1,8,1,1097,8,7,0,2,3,20,20,20,7.00033446027523,1.097,0.911577028258888,0,0,0
13,l,d,S5,12,l,0,1,1,992,7,8,5,0,4,19,19,19,6.89972310728487,0.992,1.00806451612903,0,0,0
13,l,d,S5,13,d,1,3,1,1060,1,8,0,3,6,20,20,20,6.96602418710611,1.06,0.943396226415094,0,0,0
13,l,d,S5,14,d,1,9,1,837,0,3,9,6,1,20,20,20,6.72982407048948,0.837,1.194743130227,0,0,0
13,l,d,S5,15,d,1,3,1,1623,0,7,8,3,1,20,20,20,7.39203156751459,1.623,0.616142945163278,0,0,0
13,l,d,S5,16,l,0,4,1,1030,7,5,8,6,1,19,19,19,6.93731408122368,1.03,0.970873786407767,0,0,0
13,l,d,S5,17,d,1,8,1,1100,4,8,3,9,5,20,20,20,7.00306545878646,1.1,0.909090909090909,0,0,0
13,l,d,S5,18,d,1,4,1,963,8,6,7,0,4,20,20,20,6.87005341179813,0.963,1.03842159916926,0,0,0
13,l,d,S5,19,l,0,7,1,1044,0,6,5,3,4,19,19,19,6.95081476844258,1.044,0.957854406130268,0,0,0
13,l,d,S5,21,l,0,5,1,910,8,2,0,1,4,19,19,19,6.8134445995109,0.91,1.0989010989011,0,0,0
13,l,d,S5,22,d,1,0,1,989,5,6,0,9,2,20,20,20,6.89669433162271,0.989,1.01112234580384,0,0,0
13,l,d,S5,23,l,0,2,1,881,6,7,4,3,9,19,19,19,6.78105762593618,0.881,1.13507377979569,0,0,0
13,l,d,S5,24,l,0,3,1,961,5,8,6,2,0,19,19,19,6.86797440897029,0.961,1.04058272632674,0,0,0
13,l,d,S5,25,l,0,5,1,831,8,9,7,1,0,19,19,19,6.72262979485545,0.831,1.20336943441637,0,0,0
13,l,d,S5,26,d,1,0,1,989,8,4,3,0,2,20,20,20,6.89669433162271,0.989,1.01112234580384,0,0,0
13,l,d,S5,27,l,0,2,1,741,6,3,9,8,5,19,19,19,6.60800062529609,0.741,1.34952766531714,0,0,0
13,l,d,S5,28,d,1,9,1,1131,7,9,0,3,8,20,20,20,7.03085747611612,1.131,0.884173297966401,0,0,0
13,l,d,S5,29,l,0,1,1,1009,3,6,8,0,5,19,19,19,6.91671502035361,1.009,0.991080277502478,0,0,0
13,l,d,S5,30,l,0,9,1,1385,0,5,8,1,7,19,19,19,7.23345541862144,1.385,0.72202166064982,0,0,0
13,l,d,S5,31,d,1,0,1,1337,8,0,3,2,6,20,20,20,7.19818357710194,1.337,0.74794315632012,0,0,0
13,l,d,S5,32,l,0,8,1,859,5,6,0,1,2,19,19,19,6.75576892198425,0.859,1.16414435389988,0,0,0
13,l,d,S5,33,l,0,3,1,892,4,9,8,0,2,19,19,19,6.79346613258001,0.892,1.12107623318386,0,0,0
13,l,d,S5,34,l,0,8,1,936,6,0,1,4,2,19,19,19,6.84161547647759,0.936,1.06837606837607,0,0,0
13,l,d,S5,35,d,1,6,1,878,0,7,6,4,9,20,20,20,6.77764659363512,0.878,1.13895216400911,0,0,0
13,l,d,S5,36,l,0,9,1,1091,7,3,5,8,2,19,19,19,6.99484998583307,1.091,0.916590284142988,0,0,0
13,l,d,S5,37,d,1,4,1,659,7,4,6,3,0,20,20,20,6.49072353450251,0.659,1.51745068285281,0,0,0
13,l,d,S5,38,l,0,7,1,1016,1,5,8,4,9,19,19,19,6.92362862813843,1.016,0.984251968503937,0,0,0
13,l,d,S5,39,l,0,6,1,939,1,4,3,5,7,19,19,19,6.84481547920826,0.939,1.06496272630458,0,0,0
13,l,d,S5,40,l,0,7,1,997,6,1,8,9,5,19,19,19,6.90475076996184,0.997,1.00300902708124,0,0,0
14,l,d,S3,1,l,0,8,1,1419,4,7,6,NA,NA,20,20,20,7.25770767716004,1.419,0.704721634954193,0,0,0
14,l,d,S3,2,l,0,5,1,1309,8,2,6,NA,NA,20,20,20,7.1770187659099,1.309,0.763941940412529,0,0,0
14,l,d,S3,3,d,1,8,1,781,8,1,0,NA,NA,20,20,20,6.66057514983969,0.781,1.28040973111396,0,0,0
14,l,d,S3,4,d,1,4,1,949,8,4,7,NA,NA,20,20,20,6.85540879860993,0.949,1.05374077976818,0,0,0
14,l,d,S3,5,l,0,6,1,934,4,1,2,NA,NA,20,20,20,6.83947643822884,0.934,1.07066381156317,0,0,0
14,l,d,S3,6,l,0,2,1,996,4,3,0,NA,NA,20,20,20,6.9037472575846,0.996,1.00401606425703,0,0,0
14,l,d,S3,7,l,0,1,1,1168,0,4,3,NA,NA,20,20,20,7.06304816338817,1.168,0.856164383561644,0,0,0
14,l,d,S3,8,d,1,0,1,929,1,0,5,NA,NA,20,20,20,6.83410873881384,0.929,1.07642626480086,0,0,0
14,l,d,S3,9,l,0,7,1,915,9,6,1,NA,NA,20,20,20,6.81892406527552,0.915,1.09289617486339,0,0,0
14,l,d,S3,10,l,0,9,1,1238,0,7,1,NA,NA,20,20,20,7.12125245324454,1.238,0.807754442649435,0,0,0
14,l,d,S3,11,d,1,7,1,820,3,5,7,NA,NA,20,20,20,6.7093043402583,0.82,1.21951219512195,0,0,0
14,l,d,S3,12,d,1,1,1,1415,0,1,5,NA,NA,20,20,20,7.25488481007734,1.415,0.706713780918728,0,0,0
14,l,d,S3,13,d,1,5,1,625,5,6,3,NA,NA,20,20,20,6.4377516497364,0.625,1.6,0,0,0
14,l,d,S3,14,l,0,3,1,692,2,8,1,NA,NA,20,20,20,6.53958595561767,0.692,1.44508670520231,0,0,0
14,l,d,S3,15,d,1,6,1,644,6,3,0,NA,NA,20,20,20,6.46769872610435,0.644,1.5527950310559,0,0,0
14,l,d,S3,16,d,1,4,1,570,4,9,6,NA,NA,20,20,20,6.3456363608286,0.57,1.75438596491228,0,0,0
14,l,d,S3,17,d,1,9,1,831,4,1,9,NA,NA,20,20,20,6.72262979485545,0.831,1.20336943441637,0,0,0
14,l,d,S3,18,l,0,6,1,873,0,2,1,NA,NA,20,20,20,6.7719355558396,0.873,1.1454753722795,0,0,0
14,l,d,S3,19,l,0,8,1,701,7,5,6,NA,NA,20,20,20,6.55250788703459,0.701,1.4265335235378,0,0,0
14,l,d,S3,20,d,1,9,1,661,8,1,9,NA,NA,20,20,20,6.49375383985169,0.661,1.51285930408472,0,0,0
14,l,d,S3,21,d,1,8,1,682,1,8,5,NA,NA,20,20,20,6.52502965784346,0.682,1.46627565982405,0,0,0
14,l,d,S3,22,l,0,1,1,918,9,6,4,NA,NA,20,20,20,6.82219739062049,0.918,1.08932461873638,0,0,0
14,l,d,S3,23,d,1,4,1,809,4,6,8,NA,NA,20,20,20,6.69579891705849,0.809,1.23609394313968,0,0,0
14,l,d,S3,24,d,1,0,1,624,4,5,0,NA,NA,20,20,20,6.43615036836943,0.624,1.6025641025641,0,0,0
14,l,d,S3,25,l,0,3,1,627,7,5,1,NA,NA,20,20,20,6.44094654063292,0.627,1.59489633173844,0,0,0
14,l,d,S3,26,d,1,5,1,517,5,6,4,NA,NA,20,20,20,6.24804287450843,0.517,1.93423597678917,0,0,0
14,l,d,S3,27,l,0,2,1,584,5,8,3,NA,NA,20,20,20,6.36990098282823,0.584,1.71232876712329,0,0,0
14,l,d,S3,28,l,0,0,1,628,6,8,9,NA,NA,20,20,20,6.4425401664682,0.628,1.59235668789809,0,0,0
14,l,d,S3,29,d,1,6,1,783,4,5,6,NA,NA,20,20,20,6.6631326959908,0.783,1.27713920817369,0,0,0
14,l,d,S3,30,d,1,4,1,623,9,5,4,NA,NA,20,20,20,6.43454651878745,0.623,1.60513643659711,0,0,0
14,l,d,S3,31,l,0,1,1,605,6,2,4,NA,NA,20,20,20,6.40522845803084,0.605,1.65289256198347,0,0,0
14,l,d,S3,32,d,1,9,1,597,1,6,9,NA,NA,20,20,20,6.3919171133926,0.597,1.6750418760469,0,0,0
14,l,d,S3,33,l,0,3,1,648,6,5,7,NA,NA,20,20,20,6.47389069635227,0.648,1.54320987654321,0,0,0
14,l,d,S3,34,d,1,2,1,709,2,8,4,NA,NA,20,20,20,6.56385552653213,0.709,1.41043723554302,0,0,0
14,l,d,S3,35,l,0,7,1,885,5,2,9,NA,NA,20,20,20,6.78558764500793,0.885,1.12994350282486,0,0,0
14,l,d,S3,36,l,0,2,1,665,3,4,6,NA,NA,20,20,20,6.49978704065585,0.665,1.50375939849624,0,0,0
14,l,d,S3,37,d,1,0,1,797,7,9,0,NA,NA,20,20,20,6.68085467879022,0.797,1.25470514429109,0,0,0
14,l,d,S3,38,l,0,3,1,641,6,9,8,NA,NA,20,20,20,6.46302945692067,0.641,1.5600624024961,0,0,0
14,l,d,S3,39,l,0,5,1,619,0,7,2,NA,NA,20,20,20,6.4281052726846,0.619,1.61550888529887,0,0,0
14,l,d,S3,40,d,1,7,1,654,7,4,3,NA,NA,20,20,20,6.4831073514572,0.654,1.52905198776758,0,0,0
14,l,d,S5,1,d,1,1,1,781,8,2,6,1,4,20,20,19,6.66057514983969,0.781,1.28040973111396,0,0.05,0.05
14,l,d,S5,2,l,0,3,1,617,8,7,2,0,5,20,20,20,6.42486902390539,0.617,1.62074554294976,0,0,0
14,l,d,S5,4,l,0,8,1,700,1,6,7,0,4,20,20,20,6.5510803350434,0.7,1.42857142857143,0,0,0
14,l,d,S5,5,l,0,5,1,647,4,2,6,9,0,20,20,20,6.4723462945009,0.647,1.54559505409583,0,0,0
14,l,d,S5,6,d,1,7,1,853,3,7,0,6,9,20,20,19,6.74875954749168,0.853,1.17233294255569,0,0.05,0.05
14,l,d,S5,7,l,0,2,1,702,0,1,6,5,7,20,20,20,6.55393340402581,0.702,1.42450142450142,0,0,0
14,l,d,S5,8,l,0,9,1,1049,5,4,6,7,8,20,20,20,6.9555926083963,1.049,0.953288846520496,0,0,0
14,l,d,S5,9,d,1,0,1,807,5,8,0,4,6,20,20,19,6.69332366826995,0.807,1.23915737298637,0,0.05,0.05
14,l,d,S5,10,d,1,9,1,626,4,9,3,1,5,20,20,19,6.4393503711001,0.626,1.59744408945687,0,0.05,0.05
14,l,d,S5,11,d,1,6,1,617,4,6,0,2,3,20,20,19,6.42486902390539,0.617,1.62074554294976,0,0.05,0.05
14,l,d,S5,12,l,0,0,1,935,7,3,9,5,6,20,20,20,6.84054652928869,0.935,1.06951871657754,0,0,0
14,l,d,S5,13,d,1,6,1,661,0,1,9,5,6,20,20,19,6.49375383985169,0.661,1.51285930408472,0,0.05,0.05
14,l,d,S5,14,l,0,9,1,819,7,5,3,1,8,20,20,20,6.70808408385307,0.819,1.22100122100122,0,0,0
14,l,d,S5,15,l,0,8,1,1753,5,7,6,2,9,20,20,20,7.46908388492123,1.753,0.570450656018255,0,0,0
14,l,d,S5,16,l,0,2,1,755,4,7,8,3,9,20,20,20,6.62671774924902,0.755,1.32450331125828,0,0,0
14,l,d,S5,17,d,1,5,1,864,4,5,6,1,3,20,20,19,6.76157276880406,0.864,1.15740740740741,0,0.05,0.05
14,l,d,S5,18,l,0,4,1,665,9,3,5,7,1,20,20,20,6.49978704065585,0.665,1.50375939849624,0,0,0
14,l,d,S5,19,l,0,3,1,825,1,5,9,2,8,20,20,20,6.71538338633468,0.825,1.21212121212121,0,0,0
14,l,d,S5,20,d,1,1,1,832,6,3,1,9,7,20,20,19,6.72383244082121,0.832,1.20192307692308,0,0.05,0.05
14,l,d,S5,21,l,0,7,1,1282,1,5,0,8,9,20,20,20,7.15617663748062,1.282,0.78003120124805,0,0,0
14,l,d,S5,22,l,0,3,1,674,5,4,0,6,9,20,20,20,6.51323011091231,0.674,1.48367952522255,0,0,0
14,l,d,S5,23,d,1,8,1,843,1,0,8,2,5,20,20,19,6.73696695800186,0.843,1.18623962040332,0,0.05,0.05
14,l,d,S5,24,d,1,0,1,981,4,1,3,2,0,20,20,19,6.88857245956536,0.981,1.01936799184506,0,0.05,0.05
14,l,d,S5,25,d,1,8,1,737,8,1,7,4,9,20,20,19,6.60258789218934,0.737,1.35685210312076,0,0.05,0.05
14,l,d,S5,26,l,0,4,1,1051,5,7,0,6,9,20,20,20,6.95749737087695,1.051,0.951474785918173,0,0,0
14,l,d,S5,27,d,1,6,1,792,5,0,6,7,4,20,20,19,6.67456139181443,0.792,1.26262626262626,0,0.05,0.05
14,l,d,S5,28,d,1,3,1,1040,6,8,4,9,3,20,20,19,6.94697599213542,1.04,0.961538461538461,0,0.05,0.05
14,l,d,S5,29,d,1,9,1,1126,5,9,7,8,6,20,20,19,7.02642680869964,1.126,0.88809946714032,0,0.05,0.05
14,l,d,S5,30,l,0,4,1,985,8,7,0,6,5,20,20,20,6.89264164117209,0.985,1.01522842639594,0,0,0
14,l,d,S5,31,l,0,1,1,977,3,2,4,5,9,20,20,20,6.88448665204278,0.977,1.02354145342886,0,0,0
14,l,d,S5,32,d,1,0,1,881,9,8,0,2,3,20,20,19,6.78105762593618,0.881,1.13507377979569,0,0.05,0.05
14,l,d,S5,33,l,0,1,1,845,5,0,7,3,2,20,20,20,6.73933662735717,0.845,1.18343195266272,0,0,0
14,l,d,S5,34,l,0,5,1,1971,7,1,9,6,3,20,20,20,7.58629630715272,1.971,0.507356671740233,0,0,0
14,l,d,S5,35,d,1,7,1,1076,1,9,7,2,6,20,20,19,6.98100574072173,1.076,0.929368029739777,0,0.05,0.05
14,l,d,S5,36,d,1,5,1,733,9,5,0,7,8,20,20,19,6.59714570188665,0.733,1.36425648021828,0,0.05,0.05
14,l,d,S5,37,l,0,7,1,1899,6,4,1,8,0,20,20,20,7.54908271081229,1.899,0.526592943654555,0,0,0
14,l,d,S5,38,d,1,2,1,706,2,5,1,8,7,20,20,19,6.55961523749324,0.706,1.41643059490085,0,0.05,0.05
14,l,d,S5,39,d,1,4,1,745,8,3,9,1,4,20,20,19,6.61338421837956,0.745,1.34228187919463,0,0.05,0.05
14,l,d,S5,40,l,0,2,1,1063,3,9,7,4,6,20,20,20,6.96885037834195,1.063,0.940733772342427,0,0,0
15,d,l,S3,1,d,0,9,1,673,6,4,5,NA,NA,20,20,20,6.51174532964473,0.673,1.48588410104012,0,0,0
15,d,l,S3,2,l,1,6,1,858,8,9,6,NA,NA,20,20,20,6.75460409948796,0.858,1.16550116550117,0,0,0
15,d,l,S3,3,l,1,3,1,1263,9,3,6,NA,NA,20,20,20,7.14124512235049,1.263,0.791765637371338,0,0,0
15,d,l,S3,4,d,0,4,1,736,9,5,3,NA,NA,20,20,20,6.60123011872888,0.736,1.35869565217391,0,0,0
15,d,l,S3,5,d,0,5,1,1170,9,6,7,NA,NA,20,20,20,7.0647590277918,1.17,0.854700854700855,0,0,0
15,d,l,S3,6,l,1,7,1,1107,2,9,7,NA,NA,20,20,20,7.00940893270864,1.107,0.903342366757001,0,0,0
15,d,l,S3,7,l,1,2,1,1298,4,2,0,NA,NA,20,20,20,7.16857989726403,1.298,0.770416024653313,0,0,0
15,d,l,S3,8,d,0,5,1,846,8,2,4,NA,NA,20,20,20,6.74051935960622,0.846,1.18203309692671,0,0,0
15,d,l,S3,9,d,0,1,1,1316,6,3,4,NA,NA,20,20,20,7.18235211188526,1.316,0.759878419452887,0,0,0
15,d,l,S3,10,d,0,0,1,1366,9,2,3,NA,NA,20,20,20,7.21964204013074,1.366,0.732064421669107,0,0,0
15,d,l,S3,11,l,1,4,1,1111,0,4,8,NA,NA,20,20,20,7.01301578963963,1.111,0.9000900090009,0,0,0
15,d,l,S3,12,d,0,0,1,674,8,7,3,NA,NA,20,20,20,6.51323011091231,0.674,1.48367952522255,0,0,0
15,d,l,S3,13,l,1,6,1,531,5,3,6,NA,NA,20,20,20,6.27476202124194,0.531,1.88323917137476,0,0,0
15,d,l,S3,14,l,1,3,1,761,3,7,1,NA,NA,20,20,20,6.63463335786169,0.761,1.31406044678055,0,0,0
15,d,l,S3,15,d,0,8,1,1022,3,5,7,NA,NA,20,20,20,6.92951677076365,1.022,0.978473581213307,0,0,0
15,d,l,S3,16,d,0,3,1,637,8,9,0,NA,NA,20,20,20,6.45676965557216,0.637,1.56985871271586,0,0,0
15,d,l,S3,17,l,1,6,1,779,6,3,5,NA,NA,20,20,20,6.65801104587075,0.779,1.28369704749679,0,0,0
15,d,l,S3,18,l,1,2,1,868,5,2,9,NA,NA,20,20,20,6.76619171466035,0.868,1.15207373271889,0,0,0
15,d,l,S3,19,l,1,9,1,752,9,6,2,NA,NA,20,20,20,6.62273632394984,0.752,1.32978723404255,0,0,0
15,d,l,S3,20,d,0,1,1,594,2,5,7,NA,NA,20,20,20,6.38687931936265,0.594,1.68350168350168,0,0,0
15,d,l,S3,21,l,1,5,1,706,7,1,5,NA,NA,20,20,20,6.55961523749324,0.706,1.41643059490085,0,0,0
15,d,l,S3,22,l,1,8,1,677,8,9,3,NA,NA,20,20,20,6.51767127291227,0.677,1.47710487444609,0,0,0
15,d,l,S3,23,d,0,7,1,630,1,3,5,NA,NA,20,20,20,6.44571981938558,0.63,1.58730158730159,0,0,0
15,d,l,S3,24,l,1,0,1,732,6,0,5,NA,NA,20,20,20,6.59578051396131,0.732,1.36612021857923,0,0,0
15,d,l,S3,25,l,1,6,1,578,0,6,7,NA,NA,20,20,20,6.35957386867238,0.578,1.73010380622837,0,0,0
15,d,l,S3,26,l,1,4,1,635,9,4,6,NA,NA,20,20,20,6.45362499889269,0.635,1.5748031496063,0,0,0
15,d,l,S3,27,d,0,7,1,789,3,8,1,NA,NA,20,20,20,6.67076632084587,0.789,1.26742712294043,0,0,0
15,d,l,S3,28,d,0,1,1,565,9,7,4,NA,NA,20,20,20,6.33682573114644,0.565,1.76991150442478,0,0,0
15,d,l,S3,29,l,1,9,1,862,4,9,2,NA,NA,20,20,20,6.75925527066369,0.862,1.16009280742459,0,0,0
15,d,l,S3,30,d,0,2,1,575,8,5,0,NA,NA,20,20,20,6.35437004079735,0.575,1.73913043478261,0,0,0
15,d,l,S3,31,d,0,9,1,1028,2,7,8,NA,NA,20,20,20,6.93537044601511,1.028,0.972762645914397,0,0,0
15,d,l,S3,32,d,0,0,1,710,5,6,2,NA,NA,20,20,20,6.56526497003536,0.71,1.40845070422535,0,0,0
15,d,l,S3,33,l,1,7,1,746,9,4,7,NA,NA,20,20,20,6.61472560020376,0.746,1.34048257372654,0,0,0
15,d,l,S3,34,d,0,8,1,532,5,6,1,NA,NA,20,20,20,6.27664348934164,0.532,1.8796992481203,0,0,0
15,d,l,S3,35,d,0,4,1,606,1,7,0,NA,NA,20,20,20,6.40687998606931,0.606,1.65016501650165,0,0,0
15,d,l,S3,36,l,1,2,1,873,2,9,5,NA,NA,20,20,20,6.7719355558396,0.873,1.1454753722795,0,0,0
15,d,l,S3,37,l,1,1,1,810,1,2,8,NA,NA,20,20,20,6.69703424766648,0.81,1.23456790123457,0,0,0
15,d,l,S3,38,d,0,3,1,593,5,0,8,NA,NA,20,20,20,6.38519439899773,0.593,1.68634064080944,0,0,0
15,d,l,S3,39,l,1,5,1,873,5,2,3,NA,NA,20,20,20,6.7719355558396,0.873,1.1454753722795,0,0,0
15,d,l,S3,40,d,0,8,1,850,4,3,0,NA,NA,20,20,20,6.74523634948436,0.85,1.17647058823529,0,0,0
15,d,l,S5,1,l,1,1,1,764,5,1,9,0,8,20,20,20,6.63856778916652,0.764,1.30890052356021,0,0,0
15,d,l,S5,2,l,1,5,1,829,4,8,5,9,2,20,20,20,6.7202201551353,0.829,1.20627261761158,0,0,0
15,d,l,S5,3,l,1,2,1,1144,2,7,5,1,4,20,20,20,7.04228617193974,1.144,0.874125874125874,0,0,0
15,d,l,S5,4,d,0,1,1,810,5,3,9,4,2,20,20,20,6.69703424766648,0.81,1.23456790123457,0,0,0
15,d,l,S5,5,l,1,0,1,869,4,0,8,6,3,20,20,20,6.76734312526539,0.869,1.15074798619102,0,0,0
15,d,l,S5,6,l,1,4,1,754,9,0,3,2,4,20,20,20,6.62539236800796,0.754,1.3262599469496,0,0,0
15,d,l,S5,7,l,1,6,1,663,5,7,4,8,6,20,20,20,6.49677499018586,0.663,1.50829562594268,0,0,0
15,d,l,S5,8,d,0,5,1,816,8,2,6,1,0,20,20,20,6.70441435496411,0.816,1.22549019607843,0,0,0
15,d,l,S5,9,l,1,2,1,875,4,1,7,2,9,20,20,20,6.77422388635761,0.875,1.14285714285714,0,0,0
15,d,l,S5,10,l,1,7,1,752,6,7,4,3,9,20,20,20,6.62273632394984,0.752,1.32978723404255,0,0,0
15,d,l,S5,11,l,1,8,1,621,8,7,0,2,3,20,20,20,6.43133108193348,0.621,1.61030595813205,0,0,0
15,d,l,S5,12,d,0,1,1,588,7,8,5,0,4,20,20,20,6.37672694789863,0.588,1.70068027210884,0,0,0
15,d,l,S5,13,l,1,3,1,828,1,8,0,3,6,20,20,20,6.71901315438526,0.828,1.20772946859903,0,0,0
15,d,l,S5,14,l,1,9,1,666,0,3,9,6,1,20,20,20,6.50128967054039,0.666,1.5015015015015,0,0,0
15,d,l,S5,15,l,1,3,1,563,0,7,8,3,1,20,20,20,6.33327962813969,0.563,1.77619893428064,0,0,0
15,d,l,S5,16,d,0,4,1,1032,7,5,8,6,1,20,20,20,6.93925394604151,1.032,0.968992248062015,0,0,0
15,d,l,S5,17,l,1,8,1,902,4,8,3,9,5,20,20,20,6.80461452006262,0.902,1.10864745011086,0,0,0
15,d,l,S5,18,l,1,4,1,706,8,6,7,0,4,20,20,20,6.55961523749324,0.706,1.41643059490085,0,0,0
15,d,l,S5,19,d,0,7,1,621,0,6,5,3,4,20,20,20,6.43133108193348,0.621,1.61030595813205,0,0,0
15,d,l,S5,20,d,0,6,1,1212,3,2,5,8,7,20,20,20,7.10002716662926,1.212,0.825082508250825,0,0,0
15,d,l,S5,21,d,0,5,1,803,8,2,0,1,4,20,20,20,6.68835471394676,0.803,1.2453300124533,0,0,0
15,d,l,S5,22,l,1,0,1,834,5,6,0,9,2,20,20,20,6.72623340235875,0.834,1.19904076738609,0,0,0
15,d,l,S5,23,d,0,2,1,1276,6,7,4,3,9,20,20,20,7.15148546390474,1.276,0.783699059561129,0,0,0
15,d,l,S5,24,d,0,3,1,857,5,8,6,2,0,20,20,20,6.75343791859778,0.857,1.16686114352392,0,0,0
15,d,l,S5,25,d,0,5,1,1026,8,9,7,1,0,20,20,20,6.93342302573071,1.026,0.974658869395711,0,0,0
15,d,l,S5,26,l,1,0,1,749,8,4,3,0,2,20,20,20,6.61873898351722,0.749,1.33511348464619,0,0,0
15,d,l,S5,27,d,0,2,1,738,6,3,9,8,5,20,20,20,6.60394382460047,0.738,1.3550135501355,0,0,0
15,d,l,S5,28,l,1,9,1,892,7,9,0,3,8,20,20,20,6.79346613258001,0.892,1.12107623318386,0,0,0
15,d,l,S5,29,d,0,1,1,752,3,6,8,0,5,20,20,20,6.62273632394984,0.752,1.32978723404255,0,0,0
15,d,l,S5,30,d,0,9,1,802,0,5,8,1,7,20,20,20,6.68710860786651,0.802,1.24688279301746,0,0,0
15,d,l,S5,31,l,1,0,1,1081,8,0,3,2,6,20,20,20,6.98564181763921,1.081,0.925069380203515,0,0,0
15,d,l,S5,32,d,0,8,1,1042,5,6,0,1,2,20,20,20,6.94889722231331,1.042,0.959692898272553,0,0,0
15,d,l,S5,33,d,0,3,1,1256,4,9,8,0,2,20,20,20,7.13568734702814,1.256,0.796178343949045,0,0,0
15,d,l,S5,34,d,0,8,1,1057,6,0,1,4,2,20,20,20,6.96318998587024,1.057,0.946073793755913,0,0,0
15,d,l,S5,35,l,1,6,1,766,0,7,6,4,9,20,20,20,6.64118216974059,0.766,1.30548302872063,0,0,0
15,d,l,S5,36,d,0,9,1,675,7,3,5,8,2,20,20,20,6.51471269087253,0.675,1.48148148148148,0,0,0
15,d,l,S5,37,l,1,4,1,824,7,4,6,3,0,20,20,20,6.71417052990947,0.824,1.21359223300971,0,0,0
15,d,l,S5,38,d,0,7,1,958,1,5,8,4,9,20,20,20,6.86484777797086,0.958,1.04384133611691,0,0,0
15,d,l,S5,39,d,0,6,1,908,1,4,3,5,7,20,20,20,6.81124437860129,0.908,1.10132158590308,0,0,0
15,d,l,S5,40,d,0,7,1,959,6,1,8,9,5,20,20,20,6.86589107488344,0.959,1.04275286757039,0,0,0
16,d,l,S3,1,d,0,8,1,2338,4,7,6,NA,NA,20,20,20,7.75705114203201,2.338,0.427715996578272,0,0,0
16,d,l,S3,2,d,0,5,1,1167,8,2,6,NA,NA,20,20,20,7.06219163228656,1.167,0.856898029134533,0,0,0
16,d,l,S3,3,l,1,8,1,1147,8,1,0,NA,NA,20,19,19,7.04490511712937,1.147,0.871839581517001,0.05,0,0.05
16,d,l,S3,4,l,1,4,1,1545,8,4,7,NA,NA,20,19,19,7.34277918933185,1.545,0.647249190938511,0.05,0,0.05
16,d,l,S3,5,d,0,6,1,1167,4,1,2,NA,NA,20,20,20,7.06219163228656,1.167,0.856898029134533,0,0,0
16,d,l,S3,6,d,0,2,1,1319,4,3,0,NA,NA,20,20,20,7.18462915271731,1.319,0.758150113722517,0,0,0
16,d,l,S3,7,d,0,1,1,1081,0,4,3,NA,NA,20,20,20,6.98564181763921,1.081,0.925069380203515,0,0,0
16,d,l,S3,8,l,1,0,1,1381,1,0,5,NA,NA,20,19,19,7.23056315340929,1.381,0.724112961622013,0.05,0,0.05
16,d,l,S3,9,d,0,7,1,1221,9,6,1,NA,NA,20,20,20,7.1074254741107,1.221,0.819000819000819,0,0,0
16,d,l,S3,10,d,0,9,1,935,0,7,1,NA,NA,20,20,20,6.84054652928869,0.935,1.06951871657754,0,0,0
16,d,l,S3,11,l,1,7,1,1433,3,5,7,NA,NA,20,19,19,7.26752542782817,1.433,0.697836706210747,0.05,0,0.05
16,d,l,S3,12,l,1,1,1,1087,0,1,5,NA,NA,20,19,19,6.99117688712121,1.087,0.919963201471941,0.05,0,0.05
16,d,l,S3,13,l,1,5,1,1011,5,6,3,NA,NA,20,19,19,6.91869521902047,1.011,0.989119683481701,0.05,0,0.05
16,d,l,S3,14,d,0,3,1,1502,2,8,1,NA,NA,20,20,20,7.31455283232408,1.502,0.66577896138482,0,0,0
16,d,l,S3,15,l,1,6,1,1345,6,3,0,NA,NA,20,19,19,7.20414929203594,1.345,0.743494423791822,0.05,0,0.05
16,d,l,S3,17,l,1,9,1,897,4,1,9,NA,NA,20,19,19,6.7990558620588,0.897,1.11482720178372,0.05,0,0.05
16,d,l,S3,18,d,0,6,1,1133,0,2,1,NA,NA,20,20,20,7.03262426102801,1.133,0.88261253309797,0,0,0
16,d,l,S3,19,d,0,8,1,1023,7,5,6,NA,NA,20,20,20,6.93049476595163,1.023,0.977517106549365,0,0,0
16,d,l,S3,20,l,1,9,1,829,8,1,9,NA,NA,20,19,19,6.7202201551353,0.829,1.20627261761158,0.05,0,0.05
16,d,l,S3,21,l,1,8,1,1391,1,8,5,NA,NA,20,19,19,7.23777819192344,1.391,0.718907260963336,0.05,0,0.05
16,d,l,S3,22,d,0,1,1,699,9,6,4,NA,NA,20,20,20,6.54965074223381,0.699,1.43061516452074,0,0,0
16,d,l,S3,23,l,1,4,1,782,4,6,8,NA,NA,20,19,19,6.66185474054531,0.782,1.27877237851662,0.05,0,0.05
16,d,l,S3,24,l,1,0,1,854,4,5,0,NA,NA,20,19,19,6.74993119378857,0.854,1.17096018735363,0.05,0,0.05
16,d,l,S3,25,d,0,3,1,655,7,5,1,NA,NA,20,20,20,6.48463523563525,0.655,1.52671755725191,0,0,0
16,d,l,S3,26,l,1,5,1,1648,5,6,4,NA,NA,20,19,19,7.40731771046942,1.648,0.606796116504854,0.05,0,0.05
16,d,l,S3,27,d,0,2,1,821,5,8,3,NA,NA,20,20,20,6.71052310945243,0.821,1.21802679658953,0,0,0
16,d,l,S3,28,d,0,0,1,2747,6,8,9,NA,NA,20,20,20,7.91826468609527,2.747,0.364033491081179,0,0,0
16,d,l,S3,29,l,1,6,1,805,4,5,6,NA,NA,20,19,19,6.69084227741856,0.805,1.24223602484472,0.05,0,0.05
16,d,l,S3,30,l,1,4,1,861,9,5,4,NA,NA,20,19,19,6.75809450442773,0.861,1.16144018583043,0.05,0,0.05
16,d,l,S3,31,d,0,1,1,822,6,2,4,NA,NA,20,20,20,6.71174039505618,0.822,1.21654501216545,0,0,0
16,d,l,S3,32,l,1,9,1,845,1,6,9,NA,NA,20,19,19,6.73933662735717,0.845,1.18343195266272,0.05,0,0.05
16,d,l,S3,33,d,0,3,1,779,6,5,7,NA,NA,20,20,20,6.65801104587075,0.779,1.28369704749679,0,0,0
16,d,l,S3,34,l,1,2,1,919,2,8,4,NA,NA,20,19,19,6.82328612235569,0.919,1.08813928182807,0.05,0,0.05
16,d,l,S3,35,d,0,7,1,1142,5,2,9,NA,NA,20,20,20,7.04053639021596,1.142,0.875656742556918,0,0,0
16,d,l,S3,36,d,0,2,1,992,3,4,6,NA,NA,20,20,20,6.89972310728487,0.992,1.00806451612903,0,0,0
16,d,l,S3,37,l,1,0,1,1340,7,9,0,NA,NA,20,19,19,7.20042489294496,1.34,0.746268656716418,0.05,0,0.05
16,d,l,S3,38,d,0,3,1,930,6,9,8,NA,NA,20,20,20,6.8351845861473,0.93,1.0752688172043,0,0,0
16,d,l,S3,39,d,0,5,1,1017,0,7,2,NA,NA,20,20,20,6.92461239604856,1.017,0.983284169124877,0,0,0
16,d,l,S3,40,l,1,7,1,1107,7,4,3,NA,NA,20,19,19,7.00940893270864,1.107,0.903342366757001,0.05,0,0.05
16,d,l,S5,1,l,1,1,1,1493,8,2,6,1,4,20,20,20,7.30854279753919,1.493,0.669792364367046,0,0,0
16,d,l,S5,2,d,0,3,1,1261,8,7,2,0,5,19,19,19,7.13966033596492,1.261,0.793021411578113,0,0,0
16,d,l,S5,3,l,1,6,1,1170,3,6,1,7,0,20,20,20,7.0647590277918,1.17,0.854700854700855,0,0,0
16,d,l,S5,4,d,0,8,1,1871,1,6,7,0,4,19,19,19,7.53422832627409,1.871,0.534473543559594,0,0,0
16,d,l,S5,5,d,0,5,1,1651,4,2,6,9,0,19,19,19,7.40913644392013,1.651,0.605693519079346,0,0,0
16,d,l,S5,6,l,1,7,1,1689,3,7,0,6,9,20,20,20,7.4318919168078,1.689,0.59206631142688,0,0,0
16,d,l,S5,7,d,0,2,1,1905,0,1,6,5,7,19,19,19,7.5522372875608,1.905,0.5249343832021,0,0,0
16,d,l,S5,8,d,0,9,1,1220,5,4,6,7,8,19,19,19,7.1066061377273,1.22,0.819672131147541,0,0,0
16,d,l,S5,9,l,1,0,1,1351,5,8,0,4,6,20,20,20,7.2086003379602,1.351,0.74019245003701,0,0,0
16,d,l,S5,10,l,1,9,1,992,4,9,3,1,5,20,20,20,6.89972310728487,0.992,1.00806451612903,0,0,0
16,d,l,S5,11,l,1,6,1,1000,4,6,0,2,3,20,20,20,6.90775527898214,1,1,0,0,0
16,d,l,S5,12,d,0,0,1,1571,7,3,9,5,6,19,19,19,7.35946763825562,1.571,0.63653723742839,0,0,0
16,d,l,S5,13,l,1,6,1,716,0,1,9,5,6,20,20,20,6.57368016696065,0.716,1.39664804469274,0,0,0
16,d,l,S5,14,d,0,9,1,1319,7,5,3,1,8,19,19,19,7.18462915271731,1.319,0.758150113722517,0,0,0
16,d,l,S5,15,d,0,8,1,981,5,7,6,2,9,19,19,19,6.88857245956536,0.981,1.01936799184506,0,0,0
16,d,l,S5,17,l,1,5,1,2087,4,5,6,1,3,20,20,20,7.6434829070772,2.087,0.479156684235745,0,0,0
16,d,l,S5,18,d,0,4,1,1267,9,3,5,7,1,19,19,19,7.14440718032114,1.267,0.789265982636148,0,0,0
16,d,l,S5,19,d,0,3,1,1056,1,5,9,2,8,19,19,19,6.96224346426621,1.056,0.946969696969697,0,0,0
16,d,l,S5,20,l,1,1,1,1489,6,3,1,9,7,20,20,20,7.30586003268401,1.489,0.671591672263264,0,0,0
16,d,l,S5,21,d,0,7,1,1113,1,5,0,8,9,19,19,19,7.01481435127554,1.113,0.898472596585804,0,0,0
16,d,l,S5,22,d,0,3,1,1257,5,4,0,6,9,19,19,19,7.13648320859025,1.257,0.795544948289578,0,0,0
16,d,l,S5,23,l,1,8,1,794,1,0,8,2,5,20,20,20,6.67708346124714,0.794,1.25944584382872,0,0,0
16,d,l,S5,24,l,1,0,1,1302,4,1,3,2,0,20,20,20,7.17165682276851,1.302,0.768049155145929,0,0,0
16,d,l,S5,25,l,1,8,1,1121,8,1,7,4,9,20,20,20,7.02197642307216,1.121,0.892060660124888,0,0,0
16,d,l,S5,26,d,0,4,1,2664,5,7,0,6,9,19,19,19,7.88758403166028,2.664,0.375375375375375,0,0,0
16,d,l,S5,27,l,1,6,1,1553,5,0,6,7,4,20,20,20,7.34794382314869,1.553,0.643915003219575,0,0,0
16,d,l,S5,28,l,1,3,1,1939,6,8,4,9,3,20,20,20,7.56992765524265,1.939,0.515729757607014,0,0,0
16,d,l,S5,29,l,1,9,1,1129,5,9,7,8,6,20,20,20,7.02908756414966,1.129,0.885739592559787,0,0,0
16,d,l,S5,30,d,0,4,1,1027,8,7,0,6,5,19,19,19,6.93439720992856,1.027,0.973709834469328,0,0,0
16,d,l,S5,31,d,0,1,1,1718,3,2,4,5,9,19,19,19,7.4489161025442,1.718,0.582072176949942,0,0,0
16,d,l,S5,32,l,1,0,1,1645,9,8,0,2,3,20,20,20,7.40549566319947,1.645,0.60790273556231,0,0,0
16,d,l,S5,33,d,0,1,1,1555,5,0,7,3,2,19,19,19,7.34923082461333,1.555,0.643086816720257,0,0,0
16,d,l,S5,34,d,0,5,1,1556,7,1,9,6,3,19,19,19,7.34987370473834,1.556,0.6426735218509,0,0,0
16,d,l,S5,35,l,1,7,1,1421,1,9,7,2,6,20,20,20,7.2591161280971,1.421,0.703729767769177,0,0,0
16,d,l,S5,36,l,1,5,1,1104,9,5,0,7,8,20,20,20,7.00669522683704,1.104,0.905797101449275,0,0,0
16,d,l,S5,37,d,0,7,1,1627,6,4,1,8,0,19,19,19,7.39449310721904,1.627,0.614628149969269,0,0,0
16,d,l,S5,38,l,1,2,1,1006,2,5,1,8,7,20,20,20,6.91373735065968,1.006,0.99403578528827,0,0,0
16,d,l,S5,39,l,1,4,1,689,8,3,9,1,4,20,20,20,6.53524127101366,0.689,1.45137880986938,0,0,0
16,d,l,S5,40,d,0,2,1,1653,3,9,7,4,6,19,19,19,7.41034709782102,1.653,0.604960677555959,0,0,0
17,l,d,S3,1,l,0,9,1,934,6,4,5,NA,NA,20,20,20,6.83947643822884,0.934,1.07066381156317,0,0,0
17,l,d,S3,2,d,1,6,1,796,8,9,6,NA,NA,19,19,19,6.67959918584438,0.796,1.25628140703518,0,0,0
17,l,d,S3,3,d,1,3,1,988,9,3,6,NA,NA,19,19,19,6.89568269774787,0.988,1.01214574898785,0,0,0
17,l,d,S3,4,l,0,4,1,760,9,5,3,NA,NA,20,20,20,6.63331843328038,0.76,1.31578947368421,0,0,0
17,l,d,S3,5,l,0,5,1,865,9,6,7,NA,NA,20,20,20,6.76272950693188,0.865,1.15606936416185,0,0,0
17,l,d,S3,6,d,1,7,1,986,2,9,7,NA,NA,19,19,19,6.89365635460264,0.986,1.01419878296146,0,0,0
17,l,d,S3,7,d,1,2,1,1342,4,2,0,NA,NA,19,19,19,7.20191631753163,1.342,0.745156482861401,0,0,0
17,l,d,S3,8,l,0,5,1,608,8,2,4,NA,NA,20,20,20,6.41017488196617,0.608,1.64473684210526,0,0,0
17,l,d,S3,9,l,0,1,1,919,6,3,4,NA,NA,20,20,20,6.82328612235569,0.919,1.08813928182807,0,0,0
17,l,d,S3,10,l,0,0,1,978,9,2,3,NA,NA,20,20,20,6.88550967003482,0.978,1.02249488752556,0,0,0
17,l,d,S3,11,d,1,4,1,703,0,4,8,NA,NA,19,19,19,6.55535689181067,0.703,1.42247510668563,0,0,0
17,l,d,S3,12,l,0,0,1,1030,8,7,3,NA,NA,20,20,20,6.93731408122368,1.03,0.970873786407767,0,0,0
17,l,d,S3,14,d,1,3,1,637,3,7,1,NA,NA,19,19,19,6.45676965557216,0.637,1.56985871271586,0,0,0
17,l,d,S3,15,l,0,8,1,751,3,5,7,NA,NA,20,20,20,6.62140565176413,0.751,1.33155792276964,0,0,0
17,l,d,S3,16,l,0,3,1,909,8,9,0,NA,NA,20,20,20,6.81234509417748,0.909,1.1001100110011,0,0,0
17,l,d,S3,17,d,1,6,1,600,6,3,5,NA,NA,19,19,19,6.39692965521615,0.6,1.66666666666667,0,0,0
17,l,d,S3,18,d,1,2,1,895,5,2,9,NA,NA,19,19,19,6.79682371827486,0.895,1.11731843575419,0,0,0
17,l,d,S3,19,d,1,9,1,767,9,6,2,NA,NA,19,19,19,6.64248680136726,0.767,1.30378096479791,0,0,0
17,l,d,S3,20,l,0,1,1,732,2,5,7,NA,NA,20,20,20,6.59578051396131,0.732,1.36612021857923,0,0,0
17,l,d,S3,21,d,1,5,1,938,7,1,5,NA,NA,19,19,19,6.84374994900622,0.938,1.06609808102345,0,0,0
17,l,d,S3,22,d,1,8,1,824,8,9,3,NA,NA,19,19,19,6.71417052990947,0.824,1.21359223300971,0,0,0
17,l,d,S3,23,l,0,7,1,795,1,3,5,NA,NA,20,20,20,6.67834211465433,0.795,1.25786163522013,0,0,0
17,l,d,S3,24,d,1,0,1,923,6,0,5,NA,NA,19,19,19,6.82762923450285,0.923,1.08342361863489,0,0,0
17,l,d,S3,25,d,1,6,1,621,0,6,7,NA,NA,19,19,19,6.43133108193348,0.621,1.61030595813205,0,0,0
17,l,d,S3,26,d,1,4,1,920,9,4,6,NA,NA,19,19,19,6.82437367004309,0.92,1.08695652173913,0,0,0
17,l,d,S3,27,l,0,7,1,783,3,8,1,NA,NA,20,20,20,6.6631326959908,0.783,1.27713920817369,0,0,0
17,l,d,S3,28,l,0,1,1,731,9,7,4,NA,NA,20,20,20,6.59441345974978,0.731,1.36798905608755,0,0,0
17,l,d,S3,29,d,1,9,1,921,4,9,2,NA,NA,19,19,19,6.82546003625531,0.921,1.085776330076,0,0,0
17,l,d,S3,30,l,0,2,1,728,8,5,0,NA,NA,20,20,20,6.59030104819669,0.728,1.37362637362637,0,0,0
17,l,d,S3,31,l,0,9,1,719,2,7,8,NA,NA,20,20,20,6.57786135772105,0.719,1.39082058414465,0,0,0
17,l,d,S3,32,l,0,0,1,873,5,6,2,NA,NA,20,20,20,6.7719355558396,0.873,1.1454753722795,0,0,0
17,l,d,S3,33,d,1,7,1,850,9,4,7,NA,NA,19,19,19,6.74523634948436,0.85,1.17647058823529,0,0,0
17,l,d,S3,34,l,0,8,1,695,5,6,1,NA,NA,20,20,20,6.54391184556479,0.695,1.43884892086331,0,0,0
17,l,d,S3,35,l,0,4,1,787,1,7,0,NA,NA,20,20,20,6.6682282484174,0.787,1.27064803049555,0,0,0
17,l,d,S3,36,d,1,2,1,711,2,9,5,NA,NA,19,19,19,6.56667242980324,0.711,1.40646976090014,0,0,0
17,l,d,S3,37,d,1,1,1,599,1,2,8,NA,NA,19,19,19,6.39526159811545,0.599,1.669449081803,0,0,0
17,l,d,S3,38,l,0,3,1,710,5,0,8,NA,NA,20,20,20,6.56526497003536,0.71,1.40845070422535,0,0,0
17,l,d,S3,39,d,1,5,1,709,5,2,3,NA,NA,19,19,19,6.56385552653213,0.709,1.41043723554302,0,0,0
17,l,d,S3,40,l,0,8,1,789,4,3,0,NA,NA,20,20,20,6.67076632084587,0.789,1.26742712294043,0,0,0
17,l,d,S5,1,d,1,1,1,1153,5,1,9,0,8,20,20,20,7.05012252026906,1.153,0.867302688638335,0,0,0
17,l,d,S5,2,d,1,5,1,1579,4,8,5,9,2,20,20,20,7.36454701425564,1.579,0.633312222925903,0,0,0
17,l,d,S5,3,d,1,2,1,1411,2,7,5,1,4,20,20,20,7.25205395185281,1.411,0.70871722182849,0,0,0
17,l,d,S5,4,l,0,1,1,1627,5,3,9,4,2,20,20,20,7.39449310721904,1.627,0.614628149969269,0,0,0
17,l,d,S5,5,d,1,0,1,1085,4,0,8,6,3,20,20,20,6.98933526597456,1.085,0.921658986175115,0,0,0
17,l,d,S5,6,d,1,4,1,1137,9,0,3,2,4,20,20,20,7.03614849375054,1.137,0.879507475813544,0,0,0
